sep=;
timestamp;gyro-alpha;gyro-beta;gyro-gamma;accel-x;accel-y;accel-z
1477848150783;14.118086391781;0.43423797430258;9.9873783732804;-2.9706055637084;-1.5714941146851;-9.3845223700261
1477848150800;14.112649561202;0.5193949586053;12.164353468381;-3.4195183749877;-1.7464204734802;-9.1069443456236
1477848150816;10.786346581632;7.286821466974;15.631207226918;-3.2818517795287;-1.7124527374268;-9.0726777727541
1477848150833;10.337960030546;16.02286051921;18.208765232877;-3.1361047534667;-1.4568716736725;-9.3088056922913
1477848150849;13.751507577705;24.76627617575;17.808150732394;-3.1241340374269;-1.3775637802124;-9.5130609209586
1477848150866;16.154497047537;31.163612352397;17.763655465046;-3.0002339919159;-1.3114239684837;-9.5630401272096
1477848150883;16.49437750592;31.743369054431;18.849083514735;-2.7512370557923;-1.270273581784;-9.8270006775787
1477848150899;16.905092148639;29.647682601964;19.617433692584;-2.6544214165619;-1.2499228950722;-10.159345685931
1477848150916;18.994544345941;26.186134192865;20.200501328819;-2.5591023360321;-1.2384007493503;-10.258854984692
1477848150932;18.994544345941;26.186134192865;20.200501328819;-2.5591023360321;-1.2384007493503;-10.258854984692
1477848150949;23.988003440584;15.223566169326;24.467370022197;-2.557306684787;-1.3771149130669;-10.284891854681
1477848150966;17.544023902095;10.220510658899;27.341088445663;-2.5553612863403;-1.4318821618785;-10.385448178278
1477848150983;12.357187637897;6.1773895712206;31.913440764765;-2.4774001678467;-1.2378022948334;-10.786177754211
1477848151000;12.285283675184;3.243216503081;35.273145930697;-2.4675240494659;-1.0782886092255;-11.217732749585
1477848151016;13.643092838783;3.3354562868313;33.440575440531;-2.4197897269318;-0.97458964022212;-11.288062569483
1477848151033;16.512562884585;2.9100723187663;32.50368522227;-2.0958242782593;-0.7835024202209;-11.127501128387
1477848151049;19.357008824815;0.5322803772788;34.237702912901;-1.8680758270706;-0.66618661193848;-10.816703679248
1477848151067;21.648002829052;-5.1755741360299;34.976985513191;-1.834407384491;-0.73097976743169;-10.277858887305
1477848151083;24.530576592777;-11.579901865066;34.635827809432;-1.8378490493774;-0.75881228866577;-9.8790743444914
1477848151099;28.330941658296;-17.543018156739;33.614294471881;-1.8481741171021;-0.86460607452393;-9.119065101126
1477848151116;29.921559527303;-20.764924256167;30.177688206084;-1.8020856986115;-1.0953471864562;-8.2760070972718
1477848151132;29.921559527303;-20.764924256167;30.177688206084;-1.8020856986115;-1.0953471864562;-8.2760070972718
1477848151149;18.993082685459;-6.788331209458;25.859564065626;-1.5884031639099;-1.2476784132142;-7.8927851940431
1477848151166;18.993082685459;-6.788331209458;25.859564065626;-1.5884031639099;-1.2476784132142;-7.8927851940431
1477848151182;4.3177450649586;14.108764037338;18.471524317795;-1.1076175430298;-1.2500725052765;-8.282291657434
1477848151199;4.3177450649586;14.108764037338;18.471524317795;-1.1076175430298;-1.2500725052765;-8.282291657434
1477848151216;-3.578054147423;31.992462638367;17.944232006322;-0.75731591262817;-1.1472715080261;-8.9092731806548
1477848151232;-3.578054147423;31.992462638367;17.944232006322;-0.75731591262817;-1.1472715080261;-8.9092731806548
1477848151249;-5.7789022477768;39.484947931439;20.252735200497;-0.28880057525635;-1.278802961731;-9.623792994336
1477848151266;-6.0906751970654;34.913543301085;21.855968428901;-0.25079262390137;-1.3067851205688;-9.7668465069978
1477848151283;-8.8706475666252;29.280259405752;21.824238785111;-0.15442600708008;-1.3425485444;-10.098592818805
1477848151299;-9.9831376795795;22.639218664425;22.420872884585;-0.078410104370117;-1.1311106468201;-10.325144516223
1477848151316;-6.8608336674977;15.19261004446;23.110551236027;-0.14230536117554;-1.0794856004577;-10.241047890649
1477848151332;-2.1106089217001;11.089598443044;22.825740885374;-0.37603929824829;-1.047912102597;-9.9359366704527
1477848151349;3.2051879307731;9.8249966021789;23.472008261999;-0.49814358291626;-1.2523170875992;-9.5649853384266
1477848151366;4.6443873360702;9.3094325792851;24.911824091868;-0.56907188016362;-1.4130278557708;-9.3343937590668
1477848151382;2.8774462126485;8.5649043937133;25.52316700372;-0.71646477373652;-1.6955437247345;-9.0197056591643
1477848151399;-2.7820914357498;9.1977017835211;26.174087446716;-0.91593177261353;-1.707963554515;-9.0137200819487
1477848151416;-4.1689114009626;7.6137168819717;26.249767650267;-0.89662852172852;-1.6609774565323;-9.0979660528654
1477848151432;-2.2165729033705;4.0648884736769;24.927350819399;-1.0926537461212;-1.4544775770436;-9.250596445233
1477848151449;-3.3571284770678;1.4791801310472;21.881950468503;-1.1755529786041;-1.4315829917023;-9.2905500142304
1477848151466;-6.075051139339;1.876868322358;18.395903878399;-1.1709142859528;-1.4456488990563;-9.3489085883652
1477848151483;-8.9226201835671;4.3933941057715;16.388436149251;-1.268178691864;-1.413177472825;-9.4964510647429
1477848151500;-8.6241870206144;6.6509859236459;15.962034269557;-1.214458719049;-1.3823522520314;-9.5792006827404
1477848151516;-7.9976708435221;7.4252625712609;13.712137513556;-1.2009914077759;-1.3582605007863;-9.6119715893897
1477848151533;-7.5815074173932;10.796097530446;11.098804684271;-1.1643301217895;-1.2355576303123;-9.642946233158
1477848151550;-5.8215862343344;19.66379701667;14.162283692126;-1.005115820987;-1.3124714693843;-9.8391214696137
1477848151566;-6.0308094427638;24.87173088144;14.729313190416;-1.0830769942795;-1.5593734139816;-9.7101336085776
1477848151582;-4.3223238530234;22.699344819688;9.9230490903563;-0.87074125281069;-1.6204256111145;-9.8060514861176
1477848151600;0.56741465692593;16.314977464728;5.1664801660368;-1.0687117477859;-1.8146551842621;-9.7381160048775
1477848151616;0.56741465692593;16.314977464728;5.1664801660368;-1.0687117477859;-1.8146551842621;-9.7381160048775
1477848151634;-1.5722792379725;24.361708703285;5.9731344716386;-0.9593266685707;-2.0724807390075;-9.9824743670808
1477848151650;-1.5722792379725;24.361708703285;5.9731344716386;-0.9593266685707;-2.0724807390075;-9.9824743670808
1477848151666;4.5148293196857;15.386947709367;8.5942281033675;-0.66274491051938;-1.9099744474549;-10.360758192853
1477848151683;4.5148293196857;15.386947709367;8.5942281033675;-0.66274491051938;-1.9099744474549;-10.360758192853
1477848151699;6.1048030164767;3.7471463659407;9.2451946501412;-0.5991489654541;-1.9635446730683;-10.499472397669
1477848151716;6.8982656654703;-4.5551598791873;7.0056896000758;-0.64404028311465;-2.0691888578553;-10.473734364496
1477848151733;13.83673723949;-7.684731212546;6.9260790495442;-0.63880293045044;-2.2315456579346;-10.103231474924
1477848151749;14.720976944534;-3.3583145821058;8.1859125645949;-0.73576813421939;-2.2040123388428;-10.064625265414
1477848151766;15.551676504222;0.13593334430432;11.426370311581;-0.53824642419126;-2.3383869070191;-9.9239660457444
1477848151784;14.402777214124;2.9401172537082;13.847503325169;-0.45175592575073;-2.4015339027405;-9.8406177543198
1477848151799;10.90012728792;2.9976583958143;14.852886680427;-0.38621469183657;-2.4661773475647;-9.8591726162566
1477848151816;5.2170333842918;-1.0701052673381;17.789909004668;-0.052971711730957;-2.4937105935913;-10.095151336581
1477848151833;0.43682626915247;-9.4258727904819;18.249254594277;-0.18794483032227;-2.2584802804809;-10.142885914844
1477848151849;2.1213257019513;-13.874024095943;20.132155040889;-0.088735099029541;-1.9339163544586;-10.297311848859
1477848151866;5.6313833951961;-14.533005015934;23.487598168779;-0.18390461502075;-1.2606967751434;-10.227430795642
1477848151882;12.36663635084;-7.5018306994041;27.471710690897;-0.37648821105957;-1.0407294610839;-10.439018586554
1477848151899;20.956133694434;2.3885199275178;30.826747422532;-0.27338790206909;-1.1764508772919;-10.488099501391
1477848151918;29.613425788182;6.9984854580487;33.818906448847;-0.17328034515381;-1.3534720894745;-10.285789534174
1477848151932;35.839037348716;3.5272637935377;37.754662939189;-0.028580782318115;-1.5515922768524;-9.9039141867155
1477848151949;40.300687669298;-3.3151255884365;39.32965675047;-0.32920272827148;-1.625363615506;-9.5597477323174
1477848151967;45.374613222552;-11.692780132611;40.580141444094;-0.2811690574646;-1.6083050382752;-9.1512375512606
1477848151983;49.939395984506;-20.240664548686;49.316383694458;0.38292262802124;-1.3028946159363;-9.2345856965547
1477848151999;53.405054459938;-30.117968447076;53.36324004184;-0.092924951934814;-1.4404115737915;-9.0521774575716
1477848152017;38.886230624269;-33.570007525303;36.724209374582;-0.74908584442139;-1.6765397125244;-8.6257098119322
1477848152032;38.886230624269;-33.570007525303;36.724209374582;-0.74908584442139;-1.6765397125244;-8.6257098119322
1477848152049;31.355841196398;-32.675522536503;41.312296741985;-0.76749126968384;-1.5406687683105;-9.0644477593462
1477848152067;22.097948370816;-28.392321153272;43.686064101225;-1.1415852790833;-1.1360488338746;-9.3405289738862
1477848152082;11.550998212046;-2.820511676718;54.719657554396;-0.93433719787598;-1.0781390812196;-10.115053101349
1477848152099;11.550998212046;-2.820511676718;54.719657554396;-0.93433719787598;-1.0781390812196;-10.115053101349
1477848152116;-2.8567025012523;25.610782962845;66.120568335846;-1.2910732452393;-1.236156098529;-10.086472465161
1477848152133;-2.8567025012523;25.610782962845;66.120568335846;-1.2910732452393;-1.236156098529;-10.086472465161
1477848152150;10.006534492581;2.6618719955079;78.554763795315;-1.3453916954041;-1.8842365604125;-10.607510601453
1477848152166;10.006534492581;2.6618719955079;78.554763795315;-1.3453916954041;-1.8842365604125;-10.607510601453
1477848152183;43.385054249408;-50.622367090183;86.504461951427;-1.0516531522889;-2.1906944459777;-9.7758249458864
1477848152201;46.333715215995;-68.105407648274;91.97542298604;-0.62593395039663;-2.6367642626582;-8.785074371393
1477848152216;44.380786547369;-75.589812827558;95.842450697859;-1.1278186195374;-2.6030956636733;-8.7352446474822
1477848152233;39.749501648561;-62.404296559388;95.913853495442;-1.6730980476379;-2.6065375203561;-8.8048260236327
1477848152253;32.77874718543;-25.286379713121;94.341038514506;-2.4709658239502;-2.3102550375123;-8.9617962901018
1477848152266;26.928003727302;22.527830231893;107.72243777788;-1.8019360244751;-2.3142950701507;-8.7341970655249
1477848152283;22.738433992308;46.201687659338;106.14055230573;-2.9688099489959;-2.7670986965897;-8.7180362682509
1477848152300;20.691141137658;54.10638169901;96.808068691769;-3.7261260077545;-2.2629695547242;-8.9920230951944
1477848152316;13.413227944909;72.603619971482;101.04229420356;-1.981650932721;-1.4733317004882;-8.9471316252492
1477848152333;8.2761325333416;88.668955729594;102.03969306768;-1.8499698414125;-1.4383167204041;-8.8806927453966
1477848152349;0.43083483254862;104.39594440679;104.86599119528;-1.1270702853881;-1.3810054450989;-8.7045693405703
1477848152367;-13.142197500906;115.0016026028;111.11454877633;-0.50472763748169;-1.3959692785401;-8.4705356168333
1477848152384;-26.836970966044;116.59851449112;118.05226561445;-0.36077626266479;-1.5710452018738;-8.6468087140623
1477848152399;-33.902361115221;102.12780933816;128.08254867477;0.1562216583252;-1.2102688661437;-9.5202433889418
1477848152416;-31.443807202718;83.769141943567;140.77314943568;0.20245967788696;-0.57206455917358;-9.9922008113252
1477848152433;-9.966524098197;62.139333030916;149.08135056095;0.25378537597656;-0.19587562332153;-11.077821151678
1477848152449;5.5319435248435;26.838396768034;147.54443505429;0.097563717651367;0.33937808532715;-10.497078049878
1477848152466;-2.1000648171689;10.360019834018;144.79436866802;0.094570965576172;0.7148188331604;-9.5573538206349
1477848152483;-26.259589462294;30.411181637955;141.93290189637;-0.1011550201416;0.3585316986084;-8.9086744841093
1477848152499;-48.073927888203;50.111926562941;150.38226937141;-0.079756842803955;0.15307926864624;-8.5203648658201
1477848152516;-61.952561508062;69.393314948361;160.09429293717;-0.0097264442443848;0.084096333312988;-9.3103018673995
1477848152533;-73.732226769557;87.603234483207;169.89252715063;-0.36990415649414;0.383072265625;-9.4544033364778
1477848152549;-75.782779331989;94.180132918039;181.39744805276;-0.37424372006841;0.45789106750488;-9.8576765598794
1477848152566;-60.428568719314;66.149289281306;192.79808562665;-0.71407066340791;2.6544215786754;-11.485434568842
1477848152582;-60.428568719314;66.149289281306;192.79808562665;-0.71407066340791;2.6544215786754;-11.485434568842
1477848152599;-9.6268579369987;4.5403131823658;165.1627440938;0.28865093765259;1.7727567648072;-11.089942382105
1477848152616;-9.6268579369987;4.5403131823658;165.1627440938;0.28865093765259;1.7727567648072;-11.089942382105
1477848152632;39.016192048701;-72.243225039927;130.02553258797;0.38651400357671;0.81866733930283;-10.669759625421
1477848152649;39.016192048701;-72.243225039927;130.02553258797;0.38651400357671;0.81866733930283;-10.669759625421
1477848152667;103.46774901934;-120.87303811902;105.94464881996;0.088735099029541;-0.029927520751953;-10.136899972302
1477848152683;103.46774901934;-120.87303811902;105.94464881996;0.088735099029541;-0.029927520751953;-10.136899972302
1477848152699;97.389795903379;-93.111706916742;102.00566506523;-0.46238019561768;-0.79307928166045;-9.4012815852843
1477848152716;80.146867230466;-70.56418012683;108.13622429818;-0.60872577209473;-1.670554208374;-8.8015341424804
1477848152733;62.226370131509;-33.108867303489;114.47651131978;-0.86251114807129;-2.0316297462463;-8.9453356970305
1477848152749;57.057907929953;-13.359921733531;118.77712627031;-1.2322656669617;-2.0325275718689;-9.8949360035552
1477848152766;56.836036064954;3.502551315347;115.09269000557;-1.6032171405517;-0.9223662078415;-10.081534131976
1477848152783;52.997958109933;22.611636653009;104.0231458517;-1.3995606540956;-1.0483610245415;-9.6700310686967
1477848152799;45.997553795614;36.998035073503;93.661093182632;-1.2811970172606;-1.4094366080795;-9.4766988462477
1477848152816;37.474809598326;46.326587913596;90.209798595024;-1.1153986984253;-1.7488146751404;-9.4199866853298
1477848152833;29.464763305802;52.304403626137;88.831159062003;-1.3269863432068;-1.923292048059;-9.3306530564348
1477848152851;29.314686974264;60.491918723866;92.367516825534;-0.83258362731934;-1.8761563490052;-10.034398652118
1477848152866;35.231731078664;52.693792710719;92.868005767156;-0.41195232315063;-1.148019641246;-10.327987557629
1477848152883;39.095463224209;33.684898137332;88.487395641076;-0.40626609420776;-1.290025845945;-10.244938322217
1477848152901;41.825797193975;14.233676244426;85.398845570099;-0.58897360839844;-1.7597382202148;-9.957334884323
1477848152916;41.561936741054;7.9620701900207;85.45142436633;-0.86894556503296;-2.1324854546478;-9.7357217210189
1477848152934;35.470900397736;11.593337700937;83.6927462777;-1.0684124908447;-2.1930887207031;-9.426420702716
1477848152951;29.26352885738;25.206222320569;80.350789358326;-1.2033855363708;-2.3039702581543;-9.3767413653276
1477848152966;26.08152130799;32.417594102876;76.532119385831;-0.97967731874995;-2.3566426946778;-9.4410851308022
1477848152984;24.65964838507;32.297628660294;74.757520126246;-0.49260699157715;-2.6381110273499;-9.8162268431732
1477848152999;24.65964838507;32.297628660294;74.757520126246;-0.49260699157715;-2.6381110273499;-9.8162268431732
1477848153016;22.426267026482;19.238226712507;77.718256867285;-0.50053778457642;-2.915838419928;-9.4900170188156
1477848153033;22.426267026482;19.238226712507;77.718256867285;-0.50053778457642;-2.915838419928;-9.4900170188156
1477848153049;22.870652794261;15.810929994548;79.178735726941;-0.78784191072993;-2.7687445093017;-9.5923686956877
1477848153066;22.870652794261;15.810929994548;79.178735726941;-0.78784191072993;-2.7687445093017;-9.5923686956877
1477848153084;21.113627611411;17.773405560086;74.526366034165;-0.91608148328252;-2.8559833784241;-9.5402953256025
1477848153099;21.113627611411;17.773405560086;74.526366034165;-0.91608148328252;-2.8559833784241;-9.5402953256025
1477848153116;21.300740643723;19.086669937466;70.500427141117;-1.2126631774018;-2.68090730896;-9.5872813094208
1477848153134;24.830491906779;15.679657173795;63.738833560939;-1.393126127536;-2.5424924524169;-9.563039917147
1477848153149;28.007146295408;12.058758743813;57.862309553789;-1.503409041507;-2.5887305450439;-9.21049384142
1477848153166;27.382412797689;11.724637842447;52.826127625888;-1.5590741570404;-2.6460417472839;-9.0099794341156
1477848153183;22.112235419012;11.549436660047;47.428386219178;-1.654243668465;-2.5457845892975;-8.8215855813842
1477848153199;12.429089893064;10.771766689075;42.629427006435;-1.739237822834;-2.2580313676696;-8.8381954284668
1477848153217;0.47145386082098;12.26256561223;38.413834250703;-1.8772036843673;-2.0700865871516;-8.9825958987581
1477848153233;-9.1145143482986;18.797034058165;32.05543356742;-2.4865279886108;-1.4386158860138;-9.345766244352
1477848153249;-14.024921757728;26.785650632168;25.092021557646;-2.6448446464539;-0.76030866470337;-9.6185555960061
1477848153267;-12.425901902268;31.44379354234;21.04349693656;-2.4920645799499;-0.41449616241455;-9.756970388617
1477848153283;-7.9281950130584;28.874976470971;19.655520534944;-2.074426064389;-0.19991583862305;-9.632770857836
1477848153299;-5.2719370061613;20.148293070351;20.218048084797;-1.9696798148224;-0.35419220809937;-9.1290907109801
1477848153317;-5.2590685028782;11.491051349248;20.360302142188;-2.0023007393768;-0.41225159835815;-8.8037784873411
1477848153333;-6.5120786589481;7.5822228797088;19.707815878324;-2.2719478109498;-0.44307694473267;-8.4066406522889
1477848153349;-9.912522061298;9.3820135845003;17.908296673552;-2.5296236915588;-0.23193828582764;-8.2626890582763
1477848153367;-14.354074550247;7.4138279808167;14.70735071714;-2.5552117218018;-0.098910456085205;-8.2791491946898
1477848153383;-20.609863594082;1.1048684756142;11.535805310011;-2.5110686286926;-0.029777883148193;-8.2468277645387
1477848153399;-28.268301993418;-3.4786424516008;8.6157116096281;-2.7106851921082;-0.0011971008300781;-8.2914194781981
1477848153416;-36.812469079037;-4.0890242277697;3.4118510989243;-2.8971336463928;0.07691372833252;-8.3514240111753
1477848153433;-45.137472469664;-1.9051553373622;-5.5582474371109;-3.1796494422913;0.081103581237793;-8.5552308658876
1477848153449;-54.448744931157;-0.23907145526755;-14.460067133334;-3.0737060188293;0.19841946258545;-8.9192989366394
1477848153466;-61.288537347143;4.9657016327424;-19.842548189891;-2.9866169334412;0.27488420504145;-9.1278939389436
1477848153483;-65.04908923999;9.8297615128986;-24.936682565353;-2.8245594085693;0.42257651995234;-9.6228951641469
1477848153500;-58.453674162318;11.998923725362;-30.848139575012;-2.4325088867187;0.68085109710693;-10.050260091986
1477848153516;-58.453674162318;11.998923725362;-30.848139575012;-2.4325088867187;0.68085109710693;-10.050260091986
1477848153532;-55.604436844385;1.5666935306136;-33.196720611689;-2.2765864305358;-0.045789125016797;-9.5742630296899
1477848153549;-55.604436844385;1.5666935306136;-33.196720611689;-2.2765864305358;-0.045789125016797;-9.5742630296899
1477848153566;-56.139551430004;-7.8252367415096;-35.363400050389;-2.3136967023987;-0.051026421169614;-9.5747114949767
1477848153583;-56.139551430004;-7.8252367415096;-35.363400050389;-2.3136967023987;-0.051026421169614;-9.5747114949767
1477848153599;-55.733288363077;-12.137562905135;-39.340226468211;-2.5860371412415;-0.14395135655059;-9.5422401897597
1477848153616;-55.733288363077;-12.137562905135;-39.340226468211;-2.5860371412415;-0.14395135655059;-9.5422401897597
1477848153633;-55.155474849862;-3.5993414991884;-48.326627812021;-2.4914661026001;-0.39953243857119;-9.3399302408081
1477848153649;-55.6030400707;-0.16078836267336;-48.22188003091;-2.271049912262;-0.36152445068359;-9.2664579946989
1477848153666;-55.6030400707;-0.16078836267336;-48.22188003091;-2.271049912262;-0.36152445068359;-9.2664579946989
1477848153683;-50.145278376658;-9.1353942365913;-53.021904753163;-1.7413328132187;-0.11851298217773;-9.5994016539312
1477848153699;-46.610529122677;-13.197985632273;-53.10808808011;-1.7030255044578;-0.10145429534912;-9.6182560102713
1477848153716;-43.789015542585;-11.985902823484;-51.336876594353;-1.4974235464897;-0.20290859069824;-9.8012633202593
1477848153733;-39.600668411452;-8.6085834534555;-47.060150230455;-1.2378022217682;-0.15951375867315;-9.9642185063569
1477848153749;-36.425641315394;-4.56881854998;-44.90326186793;-1.1397896643708;-0.20575170516968;-9.9951934172699
1477848153766;-33.929794570022;-4.6248269549478;-42.101692440214;-0.86984346372075;-0.46821606216431;-9.9947442121977
1477848153782;-33.290239561805;-7.5327244987937;-37.650222516591;-0.40581718139648;-0.63311670150757;-9.9907040699614
1477848153800;-33.24966482304;-9.4627780101147;-32.120747251358;-0.2703951499939;-0.68189856033325;-10.109067889459
1477848153816;-31.184072184056;-9.6500788726294;-26.461402769248;-0.15846622238159;-0.46432548446655;-10.40086092453
1477848153833;-29.582956314294;-5.8922658856393;-18.728008166412;0.014664485168457;-0.42601825790405;-10.404153097943
1477848153849;-28.753423009407;0.03015839679034;-10.676162823715;0.16654665298462;-0.47210663986206;-10.485406170654
1477848153866;-29.117567714817;7.893134798275;-2.5779919364149;0.41733927688599;-0.3975871131897;-10.711807719012
1477848153882;-27.566819367543;16.167443671108;6.8860374924218;0.56099137649536;-0.20874445724487;-11.101913098145
1477848153899;-25.999656368145;18.578590948129;13.473815991715;1.1276689819336;-0.15592238311768;-11.432462857111
1477848153916;-26.870440600525;15.800927182509;21.86512600503;1.4261960014343;-0.12808978881836;-11.706149742126
1477848153932;-27.76695927815;13.752573087216;33.857199904429;1.8170492763244;0.24375965652466;-12.908936508887
1477848153949;-20.401226928147;14.973794689115;49.872149357033;1.7319056259155;1.2029366966248;-14.399776247406
1477848153967;-2.6393665221928;11.826547679958;67.126047313753;1.601122214099;1.5836147971222;-14.570961666107
1477848153982;41.725458299973;-21.001484442975;99.993320581016;1.5954361312866;1.5372270303588;-13.258190968323
1477848153999;41.725458299973;-21.001484442975;99.993320581016;1.5954361312866;1.5372270303588;-13.258190968323
1477848154016;68.930166650931;-73.741106015478;117.71239540135;0.8144774772644;1.202787059021;-10.547356357807
1477848154033;68.930166650931;-73.741106015478;117.71239540135;0.8144774772644;1.202787059021;-10.547356357807
1477848154049;64.998682443915;-64.060351055739;97.875538466583;-0.67815769330449;0.64837973709106;-8.9620954009125
1477848154066;64.998682443915;-64.060351055739;97.875538466583;-0.67815769330449;0.64837973709106;-8.9620954009125
1477848154083;56.503125814619;-22.614640228696;86.935037076705;-0.1026513961792;0.63027366010137;-9.8102410467619
1477848154100;56.503125814619;-22.614640228696;86.935037076705;-0.1026513961792;0.63027366010137;-9.8102410467619
1477848154116;58.698427161036;-9.1009692294008;98.262605286848;0.7580639545165;0.90306293869019;-10.492888270038
1477848154133;63.434398369253;-15.832475826285;104.46584456276;0.73232628666982;1.0127473296456;-10.769568126325
1477848154152;69.531756052648;-25.291215487053;108.31622027338;0.55216261174306;1.0850222374626;-10.876259445544
1477848154166;74.695140008556;-31.626203989409;109.41346967297;0.1156698677063;1.2177507828644;-11.371111001178
1477848154183;81.747399119054;-36.24557362321;107.37340828111;-0.482730909729;1.3075334181855;-11.271003298132
1477848154202;85.260964541324;-36.405683502639;101.87705943335;-0.65840545654297;1.2023381462097;-10.92384420354
1477848154216;83.256563567114;-27.63256847604;95.668021326835;-1.038335332489;0.73157824478149;-10.346243053027
1477848154233;76.888771373722;-13.131376773713;89.187052898896;-1.2701239076477;0.31513680265122;-9.9369842432769
1477848154249;70.311237731297;3.9004226411049;82.955762036066;-1.3503298093934;0.2183212638855;-9.8608185568327
1477848154267;65.940019115326;13.037111625431;77.073767047391;-1.1761515655518;0.14918870008164;-9.8940382144652
1477848154284;66.137766752176;14.121264137292;70.531661596192;-1.1121065980773;0.21233575973511;-9.8454063220369
1477848154301;65.687807550034;9.9772824999135;63.691268123559;-1.1026795751709;0.12719198146211;-9.7384155084139
1477848154316;63.673694046824;10.938738347299;57.821328418769;-1.3178584493775;-0.065990183258057;-9.5533134820358
1477848154335;63.113843931126;16.370460798903;51.647110616644;-1.5887023660522;-0.080654668426514;-9.4873230932818
1477848154349;61.028634988845;25.430428402716;46.456160017245;-1.7845780259063;-0.130184715271;-9.3077582655976
1477848154366;57.618212253231;30.582650121974;41.020760362546;-1.8365022561447;-0.37858310097959;-9.3402295342819
1477848154382;55.423774925744;30.142929373398;36.727405903114;-1.6783353272369;-0.4071638832977;-9.3125465227874
1477848154399;58.131097988197;25.253649446618;32.357044475884;-1.7036241736039;-0.46252983322144;-9.4282163356948
1477848154416;60.457918042177;15.782553973642;28.500707717664;-1.7340005341019;-0.48123453369141;-9.3727010586945
1477848154433;59.178780704985;10.499228480813;22.823517658799;-2.0175637932266;-0.7778163374085;-8.9418942148071
1477848154449;55.392929791452;8.1173007530612;18.471920468767;-2.0193594536049;-0.85667535458989;-8.9332153433869
1477848154466;55.87929390187;-18.550687917822;18.362096149555;-1.3880383394103;-0.32725743942261;-9.2746885560961
1477848154482;55.87929390187;-18.550687917822;18.362096149555;-1.3880383394103;-0.32725743942261;-9.2746885560961
1477848154499;43.160453723836;-32.027580055985;20.53285321119;-2.0905869529945;-1.1128549322266;-8.3024925147459
1477848154516;43.160453723836;-32.027580055985;20.53285321119;-2.0905869529945;-1.1128549322266;-8.3024925147459
1477848154533;29.735887664905;-18.759464602635;24.513301336818;-2.3083096299324;-1.4227543365479;-7.6982560168944
1477848154549;15.058951780139;4.4397681020282;23.979501562614;-2.409165347467;-1.5168763893127;-7.5743563732423
1477848154566;1.0336586308749;17.667508599647;5.0230035047842;-1.8541595299209;-1.4047977510314;-8.4382144058779
1477848154583;1.0336586308749;17.667508599647;5.0230035047842;-1.8541595299209;-1.4047977510314;-8.4382144058779
1477848154599;-20.014465758848;2.7538428405597;13.499862918115;-1.0787374124389;-1.8257284400055;-8.7186349830627
1477848154616;-25.964088158042;-2.0901966879221;17.122980305804;-1.6147393821716;-1.3007996894836;-9.1383686260057
1477848154633;-27.235512504115;-10.719908477801;16.034881652149;-1.7464204369476;-0.80968900087886;-9.5844381036178
1477848154649;-24.730269125993;-8.066374008836;13.844994938196;-1.9258359055893;-0.64074829236455;-9.9173815345213
1477848154666;-16.9939153437;-8.5445897035744;7.7571517083156;-2.2192753150608;-0.71885904846191;-9.9013704935821
1477848154683;-11.126341445684;-0.60252705862338;4.5154952631297;-2.2216694368059;-0.85996723574214;-9.7331779730866
1477848154699;-8.3701202051892;8.4960142519709;6.8314382408572;-1.9960159417526;-1.0492589506287;-9.3507043857408
1477848154716;-10.453139218067;14.23009466398;9.0195909405347;-1.7869722275665;-0.86954418851323;-9.3881137090489
1477848154732;-12.468361773244;12.133673966177;8.6205550675233;-1.8133084458282;-0.73786309720464;-9.3349923277481
1477848154749;-11.42895724573;7.9971867538647;7.2993736471211;-2.1550807419487;-0.59630577791743;-9.4906151713676
1477848154766;-10.363564702197;13.78400647155;5.4848399790062;-2.5011925468445;-0.52373168622442;-9.2523922608749
1477848154783;-11.015140843354;22.985941264809;-4.6694904157041;-2.8000188415527;-0.67711015701294;-9.0773166115358
1477848154800;-19.187741369257;33.177835138634;-16.498241685443;-2.6412532708984;-0.95154555884097;-8.6417210355345
1477848154817;-26.811313360427;43.652459570509;-20.431916675635;-2.2303484475067;-0.98536360249175;-8.8998461212158
1477848154833;-30.725442056762;48.551399092322;-20.150352372385;-2.1725884055207;-1.0868178864244;-9.0111766810762
1477848154850;-27.138030336733;50.744620646138;-21.719129003974;-2.0658967940399;-1.1097124512161;-9.33843371864
1477848154866;-22.627395606971;50.617688410602;-26.19062162715;-1.8626889646668;-1.2659341278076;-9.2763341130797
1477848154883;-16.403360112588;47.78983641496;-30.631632823607;-1.8284218803406;-1.2515689178467;-9.2698999153137
1477848154899;-11.384690789719;39.161709228969;-34.619780279977;-1.6071079009125;-1.2871826675415;-9.2470051062101
1477848154916;-3.9777612999638;31.88011285671;-36.15912050379;-1.6285060417175;-1.419162997525;-9.3882629676267
1477848154933;7.0525126812703;25.707303781101;-43.341334208531;-1.5737386787415;-2.0715829864502;-8.7738511127196
1477848154949;7.0525126812703;25.707303781101;-43.341334208531;-1.5737386787415;-2.0715829864502;-8.7738511127196
1477848154966;5.3403409238122;22.981764604132;-44.210103535105;-1.0398316902603;-2.3141455421448;-8.6887074623108
1477848154983;5.3403409238122;22.981764604132;-44.210103535105;-1.0398316902603;-2.3141455421448;-8.6887074623108
1477848154999;10.377926882474;12.755737713704;-35.593584255608;-0.67860653761711;-2.5445873788696;-8.9691283317566
1477848155016;10.377926882474;12.755737713704;-35.593584255608;-0.67860653761711;-2.5445873788696;-8.9691283317566
1477848155033;12.387950809919;6.6418770126141;-31.585195533632;-0.45549686584473;-2.8197709321838;-8.7765447357178
1477848155049;12.387950809919;6.6418770126141;-31.585195533632;-0.45549686584473;-2.8197709321838;-8.7765447357178
1477848155067;6.2134371752258;-1.2949048288915;-16.774888252491;-0.17298106994629;-3.0030770698547;-9.4491657828842
1477848155083;7.563756609514;-9.4686408737435;-12.955862256385;-0.41210196075439;-2.9016227745056;-9.7352731141683
1477848155099;8.9941723915385;-12.313229394173;-12.312846903579;-0.50906713712388;-2.9055133522034;-9.7701385160142
1477848155116;10.741797526544;-10.861675884214;-12.521971928039;-0.57011925662498;-2.8492496131897;-9.775076689369
1477848155132;9.7562661161083;-11.443696793959;-11.704878105178;-0.39998129658354;-2.8327894767761;-9.6990603996416
1477848155149;4.2077081561087;-9.8014085438802;-8.1355937072058;-0.22325926827695;-2.9890111351013;-9.6951698230855
1477848155167;-3.6295057489973;-5.393846491336;-3.3747328627667;-0.2439092575958;-2.995445552063;-9.8412159942076
1477848155182;-12.436358068114;0.86285646382639;-2.3774341036081;-0.21248536080625;-3.0611364601135;-9.9254622208526
1477848155200;-19.013525441645;1.0530119718882;-1.2502425420739;0.32606033859253;-2.7207109115601;-10.502764351886
1477848155217;-20.869950367487;-7.5394104002175;4.8045791777691;0.49170916595459;-2.4109611448426;-10.968585847064
1477848155233;-18.323174316569;-17.982463990202;11.77887978974;0.13317746734619;-1.8932149993012;-11.890951890509
1477848155249;-11.258420228759;-26.154551398143;14.873722172491;-0.26770167312622;-1.6021697503906;-12.252027428381
1477848155267;-1.6463079231266;-30.291745535034;11.955734731693;-0.27937336968686;-1.6138415565491;-12.065728903961
1477848155283;5.9348307707732;-30.218136586349;4.7733272203349;-0.18959084396362;-1.988833391571;-11.032181974792
1477848155299;6.7538289357525;-23.301335495018;4.3092039134015;0.28775311203003;-2.4699182145935;-9.8929908791031
1477848155317;1.9698839729094;-12.827136242419;9.6437191127385;0.52956740664057;-2.6988638214111;-9.4265704316513
1477848155333;-7.3155996152682;-2.1928924240747;14.072592209267;0.64433952178955;-2.8380267929077;-8.8319107221741
1477848155349;-16.626456288995;12.35714153412;15.133148125093;0.62982467422485;-2.5447370164733;-8.8004870445803
1477848155366;-20.352358632183;20.925355154486;15.860438620747;1.0272621498108;-1.931971138675;-9.2259065328736
1477848155383;-18.076401289404;9.9126603726287;22.906509579857;1.3322235862732;-1.6509516822815;-9.8870051192244
1477848155403;-18.076401289404;9.9126603726287;22.906509579857;1.3322235862732;-1.6509516822815;-9.8870051192244
1477848155416;-12.933358490617;-1.2624865099348;26.359066044913;0.87523041745611;-1.6938977476258;-9.9154365379333
1477848155433;-7.7109557238642;-9.7844585756812;26.590541155885;0.61785359285884;-1.6838719916413;-9.8073980327552
1477848155450;-1.9413278057632;-6.342568731674;24.339785503596;0.076614453125;-1.5668553124359;-9.0385604721621
1477848155466;-1.9413278057632;-6.342568731674;24.339785503596;0.076614453125;-1.5668553124359;-9.0385604721621
1477848155483;-2.2459224396775;2.58475425058;23.64948560494;-0.4216787308624;-1.4131775299072;-8.6951419523377
1477848155500;-2.2459224396775;2.58475425058;23.64948560494;-0.4216787308624;-1.4131775299072;-8.6951419523377
1477848155516;-0.62219042619191;14.682335149305;16.406635188295;-0.72918402485503;-1.2677297881859;-8.4522799022399
1477848155533;-0.62219042619191;14.682335149305;16.406635188295;-0.72918402485503;-1.2677297881859;-8.4522799022399
1477848155549;-1.6763703604281;17.020805798462;12.570778752301;-0.43634327082979;-1.1876736290752;-7.9515926261902
1477848155567;-4.5991437361212;16.674996735879;14.127740864173;-0.5545569778;-1.197848995264;-7.8194627682008
1477848155583;-6.8292961227788;14.448464349482;15.974842581798;-0.41075522232056;-0.95034843974458;-8.6017680875916
1477848155599;-2.5153033929955;2.3248008793073;17.866656425277;-0.53106386715985;-0.5120598435333;-9.0613049495421
1477848155616;0.77521414443943;-8.6532255698707;16.341353947755;-0.74265142745972;-0.46776714935303;-9.1901431090424
1477848155633;4.7182157045825;-17.036535724121;11.189496789845;-1.1816881568909;-0.26994623718262;-9.4063692272795
1477848155649;1.8716820743439;-19.754478023186;5.6877986233063;-1.3031938911438;-0.30451252365112;-9.2941410244597
1477848155666;-1.6174940230609;-17.257010815434;3.3374539037201;-1.2387000839233;-0.07032967376709;-9.6606038357278
1477848155683;-1.3298743302249;-28.231051849232;3.4326481711733;-1.0226233475616;0.3981855905395;-10.216806927634
1477848155699;0.12699741581732;-37.420946726532;2.6328238412981;-1.3642460700104;0.55844746416621;-10.330381540094
1477848155716;-2.7003246798747;-43.652141966713;-2.0219972490595;-1.5342343513489;0.60199207992554;-10.245985785443
1477848155733;-9.552180917482;-40.637173523664;-8.4066617172488;-1.8875287338257;0.62713127042241;-9.9592804106339
1477848155749;-18.68038125733;-29.734583098774;-15.889521566233;-1.9895815795898;0.75596917419434;-9.7649012135823
1477848155766;-29.177017681353;-18.50287830118;-21.679578793585;-1.9129671264648;0.66558806152344;-9.6516257005165
1477848155783;-38.208149934038;-8.9645029035576;-23.501437839585;-1.5227121827941;0.45429976501465;-9.7954271888512
1477848155799;-45.576032086081;-5.8403905988931;-22.67499348775;-1.1991958204628;0.54378301553037;-10.049212555695
1477848155816;-53.163258933131;-13.483349228249;-20.60027230094;-1.1074678323608;0.76644384299014;-10.075249352618
1477848155833;-59.321975620934;-18.414504191056;-18.542662445548;-1.0826280997345;1.2407949373107;-10.383053830487
1477848155849;-65.908811981008;-17.998670321555;-15.375674482142;-1.2503718352829;1.5403694748367;-10.748618569537
1477848155866;-67.333562121116;-7.5192698799024;-11.592174007457;-1.507149971897;1.9810521996429;-11.326070374707
1477848155883;-67.333562121116;-7.5192698799024;-11.592174007457;-1.507149971897;1.9810521996429;-11.326070374707
1477848155900;-53.585169963446;-11.794125625742;-9.3868442357908;-1.42589673536;1.5472528594086;-10.85815344162
1477848155917;-53.585169963446;-11.794125625742;-9.3868442357908;-1.42589673536;1.5472528594086;-10.85815344162
1477848155932;-49.655471850898;-17.067242547082;-12.795862513757;-1.7938556304047;1.2005424949646;-10.234014777142
1477848155949;-49.515330029508;-11.058215431355;-19.516507402314;-2.1256021979401;1.1807903678009;-9.9113963226318
1477848155966;-48.361038305059;8.3828294796873;-31.724507487038;-2.1522375818115;1.4866495933533;-9.7652002102286
1477848155983;-48.361038305059;8.3828294796873;-31.724507487038;-2.1522375818115;1.4866495933533;-9.7652002102286
1477848155999;-48.184723801825;10.563662777896;-42.29157852933;-2.0700865373474;1.835604485321;-9.2498485860078
1477848156016;-50.00338802684;9.4917789933306;-47.734914863844;-1.9846435021332;1.9964649093628;-9.3550435291899
1477848156033;-47.594595457536;7.8947791663177;-53.291755281986;-1.9653402877808;2.3071125017028;-9.602544374687
1477848156050;-41.025934230843;8.3088960970165;-58.439651783952;-1.9488802244324;2.3738509460449;-9.6683848723923
1477848156066;-39.694214682325;9.6419185041185;-63.82201843484;-1.854907791005;2.026841342926;-9.1114334006712
1477848156083;-43.614343699846;12.584575734424;-71.214393645248;-1.6313492109879;1.9550152565887;-8.8425349920411
1477848156100;-45.275899913573;16.377178289952;-76.22229517489;-1.5429133506333;2.0187608940567;-8.9270800189696
1477848156116;-45.616828805994;21.223354600427;-76.537501574897;-1.3814543761765;1.9844938279968;-8.9266313984193
1477848156133;-44.591429581373;20.3904403519;-78.567754815116;-1.1665747589111;1.8037316574539;-8.957007503189
1477848156152;-44.671674058837;15.508284312425;-81.725057570278;-1.1150994597504;1.7633294679062;-8.8096147192139
1477848156166;-44.682937040778;10.700270830164;-84.61047098515;-1.1053729789734;1.6024691351959;-8.547150581415
1477848156183;-45.953697150953;2.4528805866234;-91.351184677036;-1.3819032889877;1.2728175306458;-8.3541180725649
1477848156199;-51.142318655845;-8.6647182169229;-101.35092313139;-1.5355810349838;1.1134534826417;-8.1208327560425
1477848156217;-55.109698922044;-3.9595789095064;-108.21412260566;-1.815403381414;0.9476549446106;-8.2379988536559
1477848156234;-54.208585234655;5.5359963883423;-112.51124732952;-1.8680758955693;1.1237784042358;-8.6632689235412
1477848156249;-58.470148578596;21.491623940457;-120.08458840199;-1.8068740471329;0.87283614273071;-8.6854152888976
1477848156266;-63.567395812771;41.689408561534;-122.11699315179;-1.524208631897;0.25303704182729;-8.9846907704118
1477848156284;-48.476010879358;45.341859050387;-109.01630783312;-0.45055882492065;1.1638812820435;-10.387243829523
1477848156299;-48.476010879358;45.341859050387;-109.01630783312;-0.45055882492065;1.1638812820435;-10.387243829523
1477848156316;-39.762578045727;26.023241011349;-105.41058949856;0.39279870986938;0.82719652745351;-10.680234184619
1477848156334;-37.432885897201;21.134951461999;-98.552854175627;0.56353521575928;0.59585693817139;-11.049090731756
1477848156349;-21.660763329969;33.534398334065;-75.655614870022;0.40267479171753;0.88435809208974;-12.962357133429
1477848156366;-21.660763329969;33.534398334065;-75.655614870022;0.40267479171753;0.88435809208974;-12.962357133429
1477848156382;15.500692557163;8.7326094434992;-46.086711669945;0.50382981185913;0.98401702845469;-13.777882073919
1477848156399;15.500692557163;8.7326094434992;-46.086711669945;0.50382981185913;0.98401702845469;-13.777882073919
1477848156417;39.623085092308;-24.773613506466;-24.938436216422;0.38097733917236;0.21622633743286;-12.800300193079
1477848156432;39.623085092308;-24.773613506466;-24.938436216422;0.38097733917236;0.21622633743286;-12.800300193079
1477848156449;36.192322053346;-19.676629234573;-18.463128307758;0.029777883148193;0.01915361328125;-12.264447641754
1477848156466;43.42713162979;-13.206537029114;-6.2369360141784;-0.50053778457642;0.67306994171143;-12.826037860925
1477848156483;48.74686544599;-15.312126402104;4.8294303941774;-0.17328034515381;0.86325933609009;-12.631808251245
1477848156499;55.598296504321;-7.4175179905158;10.984532204363;-0.68384384918213;1.5325883742401;-12.788478530121
1477848156517;64.091469397597;3.3888628166121;14.807722054541;-0.60049570388794;1.7396867630447;-12.046724928284
1477848156532;69.753361540269;10.402595818209;20.216623990355;-0.27653029174805;1.6910545326896;-11.718420025635
1477848156549;72.24476183249;12.786447097986;29.462898664158;0.33877953491211;1.6487071762349;-10.842591130829
1477848156566;72.352945198754;13.295693195897;41.097077481237;0.64822995335683;1.5725415779114;-10.318261113385
1477848156582;71.824630066453;13.573018512994;52.119151820373;0.69252268406972;1.6500539297242;-10.262895199994
1477848156600;71.873814258667;8.2954158649159;61.965047093865;0.97698406107798;1.6834230422974;-10.334422120722
1477848156616;70.548996616305;6.4914762470904;70.346064865875;0.78514850692749;1.5010148033142;-10.206332039642
1477848156633;69.437144272265;10.310537674802;76.774194950395;0.63162032546997;1.5174749397278;-10.142137580695
1477848156649;69.284168525424;13.086249713867;81.513888611709;0.55410804672241;1.4873977813721;-10.152313010816
1477848156666;70.629804584375;15.964728779184;85.374366172114;0.38576574249268;1.5258546820709;-10.152612432154
1477848156683;71.77470138362;15.664526597236;88.44448839271;0.3570353225708;1.4621089898041;-10.049810923447
1477848156700;72.294943232322;14.710980962684;90.973106385719;0.29807810668945;1.261744256636;-9.7641526830702
1477848156716;72.844117762348;15.440899373621;92.602625597144;0.021547814941406;1.2277765388489;-9.5708210177436
1477848156734;74.591239170902;16.830431350821;93.551031514346;-0.30555998687744;1.0339958785126;-9.3574379500458
1477848156749;76.27990099035;15.110415547988;93.02852204284;-0.47749352053218;0.88121581200864;-9.1726355824677
1477848156766;76.40778262218;13.125567697824;90.663999344641;-0.78335285568237;0.6159083770752;-8.826224420166
1477848156783;74.890688324494;14.045231325225;86.974433607838;-1.193210288913;0.3555389465332;-8.5561287645753
1477848156800;71.783867497487;15.759601122936;82.046192574485;-1.3631986159172;0.24615385818481;-8.4337252777651
1477848156816;68.843826229633;14.457937821861;68.296823699763;-1.8598458501954;0.0037409400939941;-8.2336593631469
1477848156834;68.843826229633;14.457937821861;68.296823699763;-1.8598458501954;0.0037409400939941;-8.2336593631469
1477848156849;63.902245836831;7.8217371233336;54.108157548194;-1.907879447937;-0.29314006576538;-7.9116392398559
1477848156866;63.902245836831;7.8217371233336;54.108157548194;-1.907879447937;-0.29314006576538;-7.9116392398559
1477848156884;49.627433924355;11.222113504452;39.929668378488;-2.0820575456481;-0.23044190979004;-7.9827175400332
1477848156899;49.627433924355;11.222113504452;39.929668378488;-2.0820575456481;-0.23044190979004;-7.9827175400332
1477848156916;31.110108065534;13.09606128061;24.521010912844;-2.3353940818787;-0.12479776153564;-8.2972556370057
1477848156932;31.110108065534;13.09606128061;24.521010912844;-2.3353940818787;-0.12479776153564;-8.2972556370057
1477848156949;13.822434823368;11.753517589805;7.7159332242219;-2.248155431952;0.066289458465576;-8.2543092063352
1477848156966;4.6678404981327;9.8652272701639;3.2009907795281;-2.1597195350647;0.15711948394775;-8.2074729286194
1477848156982;-4.650848695025;3.2648707640709;-0.11729507874047;-2.1471499763489;0.19063830718994;-8.1616838218689
1477848156999;-13.644107975649;-2.2579254299267;-1.6058262456895;-2.2593781791687;0.10893617553711;-8.079383139801
1477848157018;-13.644107975649;-2.2579254299267;-1.6058262456895;-2.2593781791687;0.10893617553711;-8.079383139801
1477848157032;-42.896077591633;-10.825078023094;-10.981856477755;-2.7700913208008;0.10893617553711;-7.5360490005493
1477848157049;-64.65754181563;-8.3439990004822;-18.446705117898;-2.8972832839966;0.58119245300293;-7.5161470531188
1477848157067;-86.41778685086;-0.70026082242647;-22.620872776314;-2.8570307685852;1.0251672233582;-8.6182280048095
1477848157083;-98.821840685521;1.2903400213701;-24.256417922134;-2.8634651855469;1.2553097848754;-9.5169518731157
1477848157099;-98.060943951603;-0.13467775009559;-29.345385259488;-3.1817443687439;2.0566192991395;-10.952574623462
1477848157117;-90.90108887111;-0.28805871925322;-37.208240975399;-3.16049582901;1.9063830718994;-10.810868031897
1477848157133;-85.388525154263;4.9591489200074;-41.925637484168;-2.8592753326416;1.5432125345092;-10.438419670813
1477848157150;-80.488028349319;6.0000279146087;-42.049683964779;-2.2752397651672;1.3355156135559;-9.8205663062828
1477848157166;-76.164880604727;-6.4108309228996;-40.972044038291;-2.1040543464661;1.3962684153232;-9.7556234401206
1477848157182;-69.477476539313;-19.175952462749;-38.928424117867;-2.1799206846375;1.6201263724396;-9.8443587035469
1477848157200;-62.417355881081;-29.883211430208;-35.948009601829;-2.4684219116211;1.9387048308441;-10.033800138236
1477848157216;-56.94559912943;-36.993885733582;-36.135908105896;-3.0286651000977;1.9849427773407;-9.935787507773
1477848157233;-55.706981889489;-42.921390272697;-42.545443000401;-3.3427544303894;1.8495207824707;-9.8139819868559
1477848157252;-59.178309421932;-40.4874284563;-53.742838050247;-3.7886744895935;1.7016788299561;-9.5702226362919
1477848157267;-70.012232540001;-9.6873315781363;-78.009796661818;-3.6589386871338;1.6385317977021;-9.9110970108917
1477848157284;-70.012232540001;-9.6873315781363;-78.009796661818;-3.6589386871338;1.6385317977021;-9.9110970108917
1477848157302;-64.109678681925;20.073932800857;-101.31139682667;-2.6232967584472;1.6199767713685;-10.199598055212
1477848157316;-64.109678681925;20.073932800857;-101.31139682667;-2.6232967584472;1.6199767713685;-10.199598055212
1477848157335;-57.5235048502;14.939992082913;-114.44265407207;-1.745672258062;1.2234370666062;-9.6080810459413
1477848157349;-57.5235048502;14.939992082913;-114.44265407207;-1.745672258062;1.2234370666062;-9.6080810459413
1477848157367;-56.200907019318;27.532352525443;-120.32986049508;-1.5834651777848;0.87582889480591;-9.565434228405
1477848157384;-56.200907019318;27.532352525443;-120.32986049508;-1.5834651777848;0.87582889480591;-9.565434228405
1477848157399;-44.785393293423;27.200506077071;-109.6609274266;-0.37559038543701;0.79562306612544;-9.9588314430237
1477848157417;-34.223830798697;21.288152605083;-98.607550330501;-0.18255787658691;0.73771331347041;-10.118345347827
1477848157434;-19.98525133222;-2.0135276010453;-91.20080440208;0.7300818687439;0.60693012084961;-10.515034489264
1477848157449;-15.918256172071;-21.424811029996;-83.802889908256;0.66992769816294;-0.84245970916748;-9.9000238282135
1477848157466;-16.768363714286;-22.425940884949;-73.180764126159;0.34431612625122;-1.0356420017518;-9.6918776839216
1477848157483;-18.019603143814;-10.584952477538;-66.685821131178;0.012419921112061;-1.0627262619019;-9.928903703076
1477848157499;-19.866718521817;2.2866448812827;-61.563431970668;0.23029227218628;-1.2642881141663;-10.109666074548
1477848157518;-20.340284565278;14.23781704661;-52.343738685567;0.58897346226797;-1.3820529083252;-10.42809518761
1477848157533;-18.64024535822;19.303094726602;-39.380579225827;1.2478279777527;-1.2975075160705;-10.978162653705
1477848157551;-13.623666073237;17.508112474986;-23.213745149102;1.8558054156981;-1.1942577156067;-11.636418764905
1477848157569;-5.3910559321732;12.781823913691;-5.3065519779881;1.9485807300292;-1.163881135913;-11.94751490473
1477848157583;5.0455089780994;2.8480023343536;14.696448027677;2.1501425822936;-0.99987861445323;-12.560580459595
1477848157599;16.810625509775;-8.6791358924872;33.494875444433;1.8662801940918;-0.73801280787364;-12.855217193659
1477848157618;27.402578931213;-16.038908048665;48.712372990681;1.5376760162354;-0.71646484680176;-12.833519156592
1477848157633;34.906125715646;-16.90168559179;58.348216041533;0.90994641459361;-0.72619129104614;-12.697049954224
1477848157649;38.946363609722;-10.829739627203;65.86806307242;0.58194064102173;-0.46731823654175;-12.981660384314
1477848157666;42.313110700688;-3.6430628207261;74.192185368644;0.58732744862661;-0.34431612625122;-13.219285191345
1477848157682;48.41147925208;8.4555095226454;80.308052864689;0.23388357467651;0.30930092697144;-13.571981023407
1477848157700;58.798373319161;26.063481070844;83.400516634061;0.073472063446045;1.2888286081176;-13.80975488352
1477848157716;74.406141044395;37.961627916324;86.223959742593;0.25902269210815;1.7193360306671;-13.716680878504
1477848157733;88.837709213417;37.449421785181;90.373702644537;0.85338310811147;2.0676924087524;-12.846687265722
1477848157750;100.40992796944;16.85050015415;111.15349451498;1.2005426410951;1.669955657959;-10.442310686902
1477848157766;100.40992796944;16.85050015415;111.15349451498;1.2005426410951;1.669955657959;-10.442310686902
1477848157783;88.528649983663;15.072287724494;112.13870149143;0.20141221466064;1.2295722266266;-8.9655369562011
1477848157801;88.528649983663;15.072287724494;112.13870149143;0.20141221466064;1.2295722266266;-8.9655369562011
1477848157816;80.847029922284;22.563422347658;104.69126129593;-0.051774683966115;1.3144167296921;-8.738686568097
1477848157833;73.63320268697;39.174614871405;100.97902616128;0.089932199859619;1.2187983008896;-8.4477909202576
1477848157850;67.303188269877;32.427559348875;105.63768645828;0.55306051043086;1.2247837502411;-8.6839191320557
1477848157866;67.303188269877;32.427559348875;105.63768645828;0.55306051043086;1.2247837502411;-8.6839191320557
1477848157883;59.621807265119;9.5541471581893;104.57561253291;-0.46851530083921;1.126172605896;-9.2516440545898
1477848157901;58.951103179192;2.8127777681434;99.526046849327;-0.93613283542136;1.0748469078064;-9.1587193583833
1477848157916;55.329996428439;-2.7693599631369;90.098138662473;-1.5897499023437;0.8723871568542;-8.3093758445188
1477848157933;49.350059942161;5.6346473718457;76.252628044994;-1.7738041549683;0.45519751757197;-7.8520837658204
1477848157949;48.024856394111;13.464023207992;63.657048875817;-1.8465280303955;0.69835869674683;-7.9170264858522
1477848157967;41.442770430605;14.500766523051;55.316773182206;-1.746570111084;0.39803609906621;-7.8318825431824
1477848157983;34.455370796466;17.295155714402;48.11670877807;-1.6241665512085;0.19931728820801;-7.9494974074766
1477848157999;27.598687322663;17.839438121434;40.800360403314;-1.7769465446472;0.26321254501343;-8.0075569438659
1477848158018;25.038559959465;17.932241609235;33.574344695426;-1.9065327095032;0.32231939849854;-8.189666053772
1477848158034;23.857053346269;19.89333064637;26.678524237678;-2.0766707380433;0.12195464706421;-7.8707883201599
1477848158049;21.205278504788;18.078788440519;18.855918826547;-2.0961235534668;0.034566286468506;-7.7033438415527
1477848158066;13.916682042404;13.203115958113;13.149494704261;-1.8857330825806;-0.3309983795166;-7.664587702179
1477848158084;7.9174255122846;13.25563755151;12.646925116263;-1.8133084823608;-0.077661916351318;-8.025812877655
1477848158099;4.1766500052922;11.606819640585;12.168604407366;-1.9054852462769;0.21817162628174;-8.3542674179077
1477848158116;0.12489778631799;5.5758902426238;10.365302131567;-2.0232500404358;0.0083797058105469;-8.3559132854186
1477848158134;-7.4702146075097;-1.40123657356;7.1937413565123;-2.1827637991089;-0.35314467180781;-8.3149128742494
1477848158149;-16.49707713819;-2.9136109970866;5.5346034566384;-2.3069629371643;-0.037259763336182;-8.7524528623167
1477848158166;-25.914581239391;-5.7823698494411;2.6603482229928;-2.3455693658691;0.090081837463379;-8.9041858309206
1477848158182;-35.984974585617;-10.998458106307;-0.80926125006977;-2.3434745124817;0.17986439971924;-9.3337948798582
1477848158199;-43.904172531991;-14.018477474246;-0.74926817677326;-2.7877485580444;0.37948096313477;-9.8371758976371
1477848158217;-49.490451065456;-21.492153280118;-1.8662089583846;-3.067720514679;0.27952297075801;-9.9039142415144
1477848158232;-63.053096228648;-39.692694965234;-17.149776845465;-3.7801452192444;0.13661913223267;-10.129268710239
1477848158250;-63.053096228648;-39.692694965234;-17.149776845465;-3.7801452192444;0.13661913223267;-10.129268710239
1477848158267;-81.801664972009;-45.163078848862;-34.946645812897;-4.0096892303467;1.1566987135956;-10.883591688129
1477848158282;-81.801664972009;-45.163078848862;-34.946645812897;-4.0096892303467;1.1566987135956;-10.883591688129
1477848158300;-92.963928943859;-38.0115292784;-47.714687258617;-4.1320929363526;1.8375497376373;-11.473912034961
1477848158317;-92.963928943859;-38.0115292784;-47.714687258617;-4.1320929363526;1.8375497376373;-11.473912034961
1477848158332;-82.118660881579;-27.389227618933;-77.773212569347;-5.0590977455139;3.5865141599793;-11.90606572688
1477848158349;-82.118660881579;-27.389227618933;-77.773212569347;-5.0590977455139;3.5865141599793;-11.90606572688
1477848158370;-73.135452651205;-1.7375853972558;-125.52764811384;-4.2042181152344;3.9419034689087;-10.504709421539
1477848158385;-72.880816368758;17.069359905725;-144.33578976714;-3.2011972572327;4.1510967658997;-9.8201172930068
1477848158399;-71.166124698383;25.909677163567;-154.54494182145;-2.5194483345032;4.2895114763122;-9.6202012762873
1477848158416;-63.83584956791;21.643061187188;-157.47160957891;-1.3865419999054;4.5799582844056;-9.6731730473837
1477848158432;-54.553325372633;5.4713396832248;-158.79064205104;-0.7529763490539;4.6127286273681;-9.4919619868625
1477848158450;-47.93204095348;-18.222294130076;-158.8996518702;-0.51116205444336;4.425233002118;-9.3288571129288
1477848158466;-45.322304218794;-35.969548603377;-159.55319169074;-0.5638344909668;4.0717889820375;-8.8075194274351
1477848158483;-49.033296259023;-44.294391484558;-158.54497380698;-0.59406128692627;3.6167408828735;-8.331971561078
1477848158499;-57.462320015615;-38.806874071397;-158.08360818892;-0.60408700637817;3.3900399131775;-8.1133508758545
1477848158516;-69.349000681025;-23.789369586689;-161.05357934572;-0.70374565048218;3.2550667945862;-7.8757265072145
1477848158533;-83.239262697946;-8.2305162611961;-169.61758471578;-0.61905076675415;3.2555157073975;-7.6768579856873
1477848158549;-96.365786622254;13.420392813348;-175.64425677146;-0.40910935480967;3.3081881439209;-7.8166195075989
1477848158568;-101.03361986331;38.791915957115;-174.38426445451;0.022894553375244;3.9230490577698;-8.8914663788727
1477848158585;-96.800808200682;51.19712750884;-167.87065455252;0.80086045532227;4.4930188366212;-9.6101759358613
1477848158599;-87.701650678958;49.391143530019;-158.08377211346;1.2241852363586;4.3716625938416;-9.5013890874007
1477848158616;-77.470075113603;36.801137795204;-144.52336042213;1.6274585784912;3.4472014778137;-9.0777653325509
1477848158633;-68.611811533717;16.713382399015;-130.97380873158;1.3455413330078;2.4762030122177;-8.442553604126
1477848158649;-63.608185702495;-3.0881449553821;-122.47960789483;1.1128548591614;2.1245546981812;-8.2366521152221
1477848158666;-63.013788489974;-12.661218994648;-114.77246341652;0.78514850692749;1.4185645567078;-8.1601872266356
1477848158683;-61.940519884555;-13.536294293374;-103.32647338655;0.77482351226807;1.1052233413696;-8.8949078336966
1477848158699;-57.377113405719;-16.912255309531;-90.006511674757;0.69716159591675;0.92984792363271;-9.2678050619263
1477848158716;-46.993777867195;-29.84665625777;-75.899172585635;0.045340193939209;-0.0073322425842285;-10.233716013391
1477848158733;-46.993777867195;-29.84665625777;-75.899172585635;0.045340193939209;-0.0073322425842285;-10.233716013391
1477848158749;-44.551350031323;-18.103141480005;-57.136960539407;-0.010175357055664;-0.48826750106812;-11.004199596759
1477848158766;-44.551350031323;-18.103141480005;-57.136960539407;-0.010175357055664;-0.48826750106812;-11.004199596759
1477848158783;-34.820089237766;-12.456549814848;-31.417353880063;0.1379658706665;-0.76240359115601;-11.865513790131
1477848158799;-34.820089237766;-12.456549814848;-31.417353880063;0.1379658706665;-0.76240359115601;-11.865513790131
1477848158816;-19.232392023409;-6.6106775622591;-8.8050734817248;-0.22191256637573;-0.62488663330078;-12.69450611496
1477848158832;-19.232392023409;-6.6106775622591;-8.8050734817248;-0.22191256637573;-0.62488663330078;-12.69450611496
1477848158850;-0.12055936221499;9.0525918532833;15.439698967874;-0.56727615585327;0.14395137481689;-13.282432260132
1477848158868;13.5874413112;11.236353595098;25.076030377252;-0.96965167236328;0.3194762840271;-12.980164008276
1477848158883;23.143020247794;5.8965714661374;31.288003757561;-1.0758943710327;0.18405425262451;-12.875417977905
1477848158900;29.795815744683;-0.30293655213237;36.065663025377;-1.0509048912048;0.82884254109487;-13.280935591833
1477848158918;29.795815744683;-0.30293655213237;36.065663025377;-1.0509048912048;0.82884254109487;-13.280935591833
1477848158933;45.765265892131;5.5272947273397;45.408214338174;-1.8336593426026;2.0208559118409;-14.444218615723
1477848158949;62.230604848795;22.929257524887;46.9631239782;-2.4645313339233;3.1423896424225;-14.857517677307
1477848158966;77.880958803504;38.950086062819;45.39566045048;-2.2879589614868;3.4760814622741;-13.735385286713
1477848158982;88.274232267269;53.537321073216;49.33073050681;-1.765873361969;3.3054946670532;-12.991536758423
1477848159004;93.058431441216;61.051085820647;58.883190608274;-0.88316113739014;2.8829180009704;-11.142913509314
1477848159019;96.193030647577;54.709289327236;76.033727312284;-0.091129300689697;2.7548283582825;-9.8302928144593
1477848159033;91.14220820919;50.821289519571;82.102630427597;0.16175824966431;2.7148749719482;-9.2835169600887
1477848159052;91.20730674217;36.556702400282;95.156276233461;-0.037558892413229;2.558653313623;-9.4376438061257
1477848159067;91.538666539564;31.298201229992;106.63662894515;0.026934768676758;2.7380688735962;-9.9106480615478
1477848159082;92.828704858671;25.188340885322;113.77261934468;-0.084545246124268;2.7901427597046;-10.04337657955
1477848159103;91.418871851711;9.971529773085;126.96422814159;-0.18166005096436;2.8543372917175;-10.44201148476
1477848159119;91.418871851711;9.971529773085;126.96422814159;-0.18166005096436;2.8543372917175;-10.44201148476
1477848159134;93.042482949504;2.2311438313043;131.32516732286;-1.1596914291382;3.0181904678345;-10.351630006763
1477848159154;93.042482949504;2.2311438313043;131.32516732286;-1.1596914291382;3.0181904678345;-10.351630006763
1477848159167;86.740444987251;8.971416762545;122.18862817581;-1.844433167875;2.2997804052491;-9.1494415346893
1477848159185;86.740444987251;8.971416762545;122.18862817581;-1.844433167875;2.2997804052491;-9.1494415346893
1477848159201;73.884321421995;18.563047145126;102.45041283304;-2.0706852156266;1.5861586632148;-8.3572601699829
1477848159217;73.884321421995;18.563047145126;102.45041283304;-2.0706852156266;1.5861586632148;-8.3572601699829
1477848159237;61.98492294435;32.222196051101;86.901118357287;-1.9093757691757;1.2255319382599;-8.0938982796267
1477848159250;61.98492294435;32.222196051101;86.901118357287;-1.9093757691757;1.2255319382599;-8.0938982796267
1477848159268;57.097608404504;31.453444599637;75.929266399118;-1.748216161258;0.89947159966733;-7.9153801799498
1477848159282;57.097608404504;31.453444599637;75.929266399118;-1.748216161258;0.89947159966733;-7.9153801799498
1477848159300;53.715991991714;22.023224393749;68.917394197183;-1.5795745635544;0.50787002716064;-7.9699977591917
1477848159319;55.029546652134;10.216308385013;66.914311449483;-1.6074071578537;0.49425307828374;-8.0991354496278
1477848159332;55.426711907087;-7.3321978287249;62.710528090826;-1.8778022530487;0.31768055971675;-8.2406923305236
1477848159351;54.584269544668;-20.99105645166;55.677700868517;-2.3955483985901;0.33354221878052;-8.2716674606323
1477848159366;49.040269882166;-26.764707564626;46.10707929405;-2.6633997093201;0.31887773361206;-8.2088199593142
1477848159383;39.826805729588;-20.470442357649;34.375618092622;-3.0582933456421;0.41329906158447;-8.1863740264893
1477848159401;26.274786633197;-9.365491356898;21.971832342886;-3.0509611030579;0.28027123184204;-8.0897081344604
1477848159416;11.815136141402;3.4939450635494;12.06731867839;-2.8145337621827;0.26785131072998;-8.1181392791748
1477848159435;-1.5776319718477;10.844211090506;5.5494463114785;-2.4069207834106;0.36571430358887;-8.3870379800659
1477848159451;-11.015670183015;11.492984292783;2.4407979819817;-2.2246623281617;0.6013935295105;-8.8672249774657
1477848159466;-14.411536931734;4.9030555645619;-0.85155794355701;-2.4515128623962;0.67696059247442;-8.963442175879
1477848159483;-14.411536931734;4.9030555645619;-0.85155794355701;-2.4515128623962;0.67696059247442;-8.963442175879
1477848159501;-37.453803351534;-16.838781257082;-14.443929103873;-2.6610055076599;0.79846625366211;-8.8687212804381
1477848159517;-56.102688899054;-15.965673052837;-21.745532807758;-2.8769325698853;0.96306761779785;-8.9574567447938
1477848159535;-73.288933832045;-5.6119288820058;-27.692846603013;-2.9750949110169;1.114500945868;-9.1965777451998
1477848159550;-82.199045377921;7.6430602284197;-31.928077860156;-2.9908067132812;1.4845547034333;-10.102633034106
1477848159566;-77.450014848011;17.450342734986;-36.075269686445;-2.8790274232727;1.9527706925323;-10.842890186841
1477848159583;-66.357767145343;16.926127423735;-41.127686974003;-2.6794110059876;1.9601028985839;-10.788871011883
1477848159600;-56.895632880557;7.7715719452008;-46.181231242774;-2.112434015744;1.514033214905;-10.322001834283
1477848159617;-49.601694356468;-3.3850357762428;-47.822870624881;-1.8365022470115;1.2575544037308;-9.8786259431368
1477848159636;-40.487640192165;-24.062192955348;-48.559550923097;-1.9828479422196;1.3587094421387;-9.5018379271467
1477848159650;-40.487640192165;-24.062192955348;-48.559550923097;-1.9828479422196;1.3587094421387;-9.5018379271467
1477848159668;-40.660232242302;-24.789725922718;-60.940778265551;-2.4414871064117;1.6301520188263;-9.2125886765411
1477848159686;-40.660232242302;-24.789725922718;-60.940778265551;-2.4414871064117;1.6301520188263;-9.2125886765411
1477848159701;-44.442220683859;-18.828985683102;-70.059879939651;-2.3772926109314;1.6738461991241;-9.144952260446
1477848159717;-48.463805331311;-12.017950924843;-77.553854213963;-1.9806033598969;1.6425719764709;-9.1076929720338
1477848159733;-54.626671359036;0.41623511643474;-88.303943590159;-1.5563807167053;1.5257050079346;-8.9326170487002
1477848159750;-54.626671359036;0.41623511643474;-88.303943590159;-1.5563807167053;1.5257050079346;-8.9326170487002
1477848159769;-54.415782438222;3.4312810661222;-90.710936404617;-0.9916484731812;1.607257465451;-8.9932198032988
1477848159783;-54.415782438222;3.4312810661222;-90.710936404617;-0.9916484731812;1.607257465451;-8.9932198032988
1477848159799;-49.280091484303;-13.011649533979;-85.511748597079;-0.80804306030273;1.2671312377708;-8.8277207962036
1477848159819;-50.413018377028;-16.134711697058;-85.013445315992;-0.96276834259033;1.2309189399443;-8.6248119863097
1477848159833;-53.837890377831;-13.546500303541;-84.778056506626;-1.1929109041076;0.95872812728882;-8.2810944835387
1477848159850;-57.543537795035;-8.4944979499752;-83.544073550036;-1.2972084600586;0.78754278165288;-8.013093535205
1477848159867;-61.824140291287;-3.2516080308066;-83.062852572063;-1.3573626306396;0.37409400939941;-7.856123688861
1477848159883;-63.894411609853;-0.94243398399;-77.57872976292;-1.1689691067018;0.5241805990357;-8.0524486633852
1477848159902;-62.332367837239;-6.4230548270798;-72.012323664845;-0.85757296101674;0.48482583618164;-8.5559789077759
1477848159916;-59.240498294325;-15.739033715798;-66.882933560436;-0.7653963432312;0.39653964996338;-8.8173955458159
1477848159933;-56.803316043735;-27.451448934725;-59.830182676318;-0.72708897053823;0.22655133209229;-9.3194297794951
1477848159951;-53.726787105697;-36.330233817972;-52.594772043227;-0.82614906422719;0.32620997619629;-10.233117170715
1477848159967;-50.364763090542;-39.652072415146;-46.971084563678;-0.98356796951294;0.38127661437988;-10.616039652606
1477848159984;-47.741051788814;-36.525911907504;-42.630851100877;-1.1430818012513;0.39968203964233;-11.392060411835
1477848160004;-45.407285432447;-27.713960425285;-39.497553045553;-1.1776479415894;0.38501755447388;-11.982081191199
1477848160017;-42.273492188408;-16.766145610353;-35.902708372159;-1.1363478168212;0.42332478103638;-12.202946294348
1477848160034;-37.797696546055;-5.2234349790914;-32.715567935607;-1.0669159686767;0.54797290496826;-12.544120615442
1477848160049;-31.099920838387;3.2165529386652;-28.47144718726;-0.82285718307495;0.73846157455444;-12.851925166376
1477848160067;-21.638915262361;9.6945647484674;-23.109738443516;-0.7899369102478;0.80385320739746;-12.816310832159
1477848160088;-5.7966112207474;14.8279291692;-12.332527239899;-0.30271687240601;0.07047931137085;-11.583446614783
1477848160100;-5.7966112207474;14.8279291692;-12.332527239899;-0.30271687240601;0.07047931137085;-11.583446614783
1477848160118;-0.30861865587201;11.359697419998;4.3951251318393;-0.0065840545654297;0.50592488444224;-12.058696228845
1477848160134;-0.30861865587201;11.359697419998;4.3951251318393;-0.0065840545654297;0.50592488444224;-12.058696228845
1477848160151;22.273685723066;1.3724089063943;22.272726081487;-0.24779987182617;1.2985551254272;-13.26881523819
1477848160171;38.155881911414;-0.014889223753719;26.776474273018;-0.68040218429565;1.7823334983826;-13.202825347193
1477848160185;49.370369509658;-0.14365774130687;27.302030008894;-0.88001874771118;1.8427870903015;-12.275370894568
1477848160200;49.370369509658;-0.14365774130687;27.302030008894;-0.88001874771118;1.8427870903015;-12.275370894568
1477848160221;55.30501501155;7.4328807935064;31.686391616375;-0.62952539901733;2.0412065072212;-11.33819058222
1477848160233;55.30501501155;7.4328807935064;31.686391616375;-0.62952539901733;2.0412065072212;-11.33819058222
1477848160250;59.798804787271;9.5347801567977;43.461835820963;-0.41299978637695;2.4482208716461;-11.051335588074
1477848160266;59.798804787271;9.5347801567977;43.461835820963;-0.41299978637695;2.4482208716461;-11.051335588074
1477848160283;67.14936557958;14.254492953469;56.588274367907;-0.1048959602356;2.4151509977479;-10.800543256433
1477848160303;69.473877029621;15.061820459591;62.580501779596;0.012270283508301;2.4242788915772;-10.759542114612
1477848160316;72.927261655114;13.520805131884;70.775567651453;-0.002543839263916;2.9498060829163;-10.776301672363
1477848160333;78.791846491595;9.9914927084817;77.704862866322;-0.22714988250732;3.0449755989075;-10.491391528674
1477848160353;83.439134523628;6.7004471654074;82.993498831231;-0.29523484608755;2.9270610940795;-10.17595589834
1477848160367;85.220721066734;6.6918872308301;85.179084233554;-0.61456163864136;2.5941174987793;-9.4186397505331
1477848160384;84.026926943221;8.760430511536;83.454775656828;-0.89902286951914;2.2761375907898;-8.7491612003602
1477848160401;79.055498623747;10.650521439797;80.286578749939;-0.96635949895009;2.2058079900879;-8.5290438468382
1477848160417;71.652154129532;12.497368732875;79.830684113408;-1.0555436569214;2.6541221048217;-8.3680339313231
1477848160436;65.239036800808;14.656807317282;80.125010625122;-1.333720035376;2.7157729437012;-8.3446903920714
1477848160452;59.80465825939;17.679866119403;79.531357903221;-1.4404115737915;2.5354596129044;-8.3418475698609
1477848160467;55.266701065401;24.793040272013;76.728630758442;-1.7102081368377;2.235585745372;-8.137891735132
1477848160486;51.991550226299;27.232539664278;75.332533261902;-1.5563807167053;1.8962077513764;-7.8594158622742
1477848160501;47.417519388208;21.907252904284;75.63077347201;-1.452532219696;1.745372955455;-7.7207018035889
1477848160518;45.712188492091;7.8666797680723;77.309073894488;-1.3338695999146;1.594837576305;-7.7904330730714
1477848160534;47.952545181368;-12.14164991958;76.809431896323;-1.7603366975646;1.4995184272766;-8.1004821880616
1477848160551;50.372365091088;-33.361160831051;73.666629632768;-1.9180548415253;1.3854945732117;-8.1384901394166
1477848160569;42.043570945472;-51.959335639078;52.828063984518;-3.03016140307;0.87283614273071;-8.1079637759887
1477848160583;42.043570945472;-51.959335639078;52.828063984518;-3.03016140307;0.87283614273071;-8.1079637759887
1477848160600;18.908470302021;-42.306273681329;29.642341394033;-3.3927332439147;0.95708211364746;-8.3048868625365
1477848160616;18.908470302021;-42.306273681329;29.642341394033;-3.3927332439147;0.95708211364746;-8.3048868625365
1477848160633;-0.27615530035547;-19.822178858239;4.6632685402571;-3.7340567642212;0.9742903650146;-8.750058624124
1477848160651;-0.27615530035547;-19.822178858239;4.6632685402571;-3.7340567642212;0.9742903650146;-8.750058624124
1477848160669;-19.221111965994;-3.7363636316753;-20.056894893972;-3.4653077374665;0.76644384299014;-8.8950576813629
1477848160683;-19.221111965994;-3.7363636316753;-20.056894893972;-3.4653077374665;0.76644384299014;-8.8950576813629
1477848160700;-40.50467126886;5.6598618689405;-36.698824976532;-3.1197945286515;0.85293434143066;-8.4606596080504
1477848160716;-40.50467126886;5.6598618689405;-36.698824976532;-3.1197945286515;0.85293434143066;-8.4606596080504
1477848160735;-72.606229103745;15.882732358198;-46.384104936596;-2.3862707210265;1.1906663948501;-8.2658318863466
1477848160752;-82.220417039834;9.1831329900215;-42.896910874711;-1.8140565973144;1.6054618324722;-8.6951418062072
1477848160766;-84.001231771564;0.44991816764623;-37.112799327032;-1.7019781051636;2.0183119995117;-9.406219781472
1477848160783;-79.432975858416;-7.8551802908309;-33.755272991445;-1.7732056776185;2.2613235045502;-9.871742503766
1477848160801;-73.03806098383;-6.7603931744317;-31.763548848334;-1.9451392843384;2.3561937818665;-10.375422458826
1477848160817;-64.518615767912;-2.1073314981156;-32.03914356625;-2.4082676679749;2.1716905433655;-10.239551295416
1477848160834;-59.865289848652;0.44869892551853;-35.920463448906;-2.527528692041;2.0145710594177;-9.9486558667723
1477848160849;-57.30706981578;3.8710169691807;-39.06952899593;-2.6313772438492;1.8079215286255;-9.2942907237123
1477848160866;-55.911242111713;2.424987588157;-39.595644807318;-2.6241947667329;1.9684826774597;-9.1458503417969
1477848160885;-53.524599845887;-4.0693938372082;-40.890928711708;-2.8716952309208;2.1773767723083;-9.363273789193
1477848160900;-50.392145318924;-11.679637994874;-43.39857460887;-3.0545524512139;2.2912509157043;-9.4503630115785
1477848160916;-48.452480877668;-17.16125839346;-49.06027209115;-3.4543840462616;2.2592285415649;-9.4011320572784
1477848160935;-50.219167363099;-17.269428099345;-57.710412976837;-3.7158010496277;2.1796213363647;-9.3164373653466
1477848160949;-53.030271734896;-10.098238319925;-68.401066046876;-3.8286276567321;2.1923405692169;-9.2564327775705
1477848160966;-55.406784830183;2.1006120860761;-76.546681349142;-3.7217865537781;2.2397757261414;-9.1599165231455
1477848160987;-57.853566911651;14.038722154946;-81.559657709337;-3.4853589754409;2.1856068039825;-8.9986069396973
1477848161004;-58.999816088352;19.954308867733;-86.855574655901;-3.3562218786599;2.1432593438522;-8.9634421028137
1477848161017;-56.547641572534;19.287774612294;-90.446491970522;-3.0859764302018;2.1519383431366;-9.11876609078
1477848161033;-50.646740620237;14.991575379072;-92.358132145614;-2.9293056581359;2.3009775060792;-9.4533556905884
1477848161050;-45.391763827558;10.755430584127;-93.388281766803;-2.8217162940979;2.2369325934037;-9.5645365032472
1477848161068;-42.654172781798;12.64805551257;-94.549769095542;-2.8396726604186;2.0174142195549;-9.3912560484955
1477848161083;-44.594113845716;29.48839576033;-95.246824051288;-2.4435822155274;1.2951134605408;-8.6954410814147
1477848161100;-44.594113845716;29.48839576033;-95.246824051288;-2.4435822155274;1.2951134605408;-8.6954410814147
1477848161120;-41.804879739642;34.195960211789;-86.972015720871;-1.3464393047608;0.59795186462402;-9.0083334113411
1477848161134;-41.804879739642;34.195960211789;-86.972015720871;-1.3464393047608;0.59795186462402;-9.0083334113411
1477848161150;-32.371268344831;16.595133041462;-72.284308627784;-0.96920261342153;0.10519523544312;-9.4071175614288
1477848161169;-27.700880613024;12.329049819838;-65.626048979559;-1.2482767444335;-0.2153285118103;-9.695319403607
1477848161183;-27.700880613024;12.329049819838;-65.626048979559;-1.2482767444335;-0.2153285118103;-9.695319403607
1477848161199;-24.43825634086;10.125482236977;-60.761014516786;-1.3640962497436;-0.43080680735484;-9.8045548543517
1477848161217;-16.237721195026;7.0439706759396;-48.925300722962;-1.0630256832398;-0.79188219909668;-10.676044331714
1477848161234;-11.276763555549;5.3824870329726;-43.308986432622;-1.0696095916748;-0.79667045628652;-10.819397448377
1477848161252;-6.3803751093905;8.9257919526629;-38.077823094485;-1.132756514331;-0.82689754450694;-11.129745692444
1477848161267;-3.2930408120855;16.083597976405;-32.749240768215;-1.0332476539612;-0.75941098521128;-11.560851921137
1477848161284;1.7211247480778;25.970530733977;-26.823250823549;-0.89348613204956;-0.6347628612794;-11.851747130585
1477848161303;11.747244061052;29.74103762754;-18.237165159446;-0.60648120803833;-0.23373393707275;-12.557886690466
1477848161317;26.456768485896;23.777020604669;-9.6837653656159;-0.49589901885986;-0.14844050292969;-12.800598883764
1477848161335;42.467548108011;11.854596705558;-2.2988196934783;-0.52418052597046;-0.18270751419067;-12.73790102005
1477848161350;42.467548108011;11.854596705558;-2.2988196934783;-0.52418052597046;-0.18270751419067;-12.73790102005
1477848161366;54.095617320878;6.5581038886702;2.4924147887565;-1.0980408825196;-0.13676876983643;-12.181697754614
1477848161384;55.575545144196;15.40261787087;3.4438887415564;-1.1335048484802;0.16115969924927;-12.524667434692
1477848161399;60.953878568379;25.208906584913;6.6497697230869;-1.2114660400391;0.79083466280513;-13.669843724005
1477848161417;72.503953851114;33.776395351453;11.185821294297;-1.1840825046815;1.471685814711;-14.840458990479
1477848161435;89.962914577285;37.700345859815;14.425777876154;-1.3688846530639;1.896656627655;-14.989797319031
1477848161450;107.40889111384;36.886139499425;14.711662274054;-1.5550339782715;1.8210896377563;-13.902231507166
1477848161466;116.74937970951;31.863235459271;16.836458992764;-1.0389340290345;1.1830348953247;-12.288838278906
1477848161484;120.83593653144;19.973450472882;22.672744647966;-0.80160864334106;1.1724106437241;-11.889306169128
1477848161499;126.53567475231;1.0818955612277;27.963373320564;-0.99030166168213;1.2949637498718;-11.638064778546
1477848161516;130.04282662695;-12.897657091826;29.187061474527;-1.5824175866943;1.217750819397;-11.312153931427
1477848161532;129.77278826792;-7.8566718333909;26.352312695371;-1.8807950781891;1.1674725114685;-11.170896033478
1477848161550;126.41809987593;11.577959530021;19.637828637446;-2.4155998123777;1.0908582044739;-10.954968825122
1477848161569;117.719676383;52.723087392069;6.7933846956701;-2.2839187872845;0.9259576381959;-10.64881058009
1477848161583;117.719676383;52.723087392069;6.7933846956701;-2.2839187872845;0.9259576381959;-10.64881058009
1477848161600;114.48147686731;59.177783497366;5.6352783105703;-1.8661305519215;0.98102413024902;-10.250774334894
1477848161617;114.48147686731;59.177783497366;5.6352783105703;-1.8661305519215;0.98102413024902;-10.250774334894
1477848161632;114.6078695179;38.059272300699;5.1371568832695;-2.2652140457153;0.86984339065552;-9.7649008893553
1477848161651;114.6078695179;38.059272300699;5.1371568832695;-2.2652140457153;0.86984339065552;-9.7649008893553
1477848161667;97.985374738626;24.532169734401;-5.1631739275917;-2.8776807579041;0.2826654335022;-8.3033908518251
1477848161684;84.2520909594;25.691534581855;-9.9280112227883;-3.0603882720947;-0.11103110198975;-7.6403461181089
1477848161701;70.71395251495;27.497824211642;-13.540548647453;-3.0946552833557;-0.40432080535889;-7.1857475162782
1477848161717;62.267658625042;25.647041022054;-15.398477068686;-3.0710125419617;-0.47465047912598;-7.2421606006347
1477848161734;58.187317275255;15.316123770316;-17.913726673942;-2.9080571914673;-0.66079965820312;-7.3425678711489
1477848161752;53.628743155256;-4.0977395491506;-18.992054741989;-2.0652982070923;-0.91323829574585;-7.4173865268983
1477848161767;48.854580944295;-29.25283278114;-14.985771425825;-1.7530045280457;-1.0929530578613;-7.4028713870727
1477848161783;40.429935338962;-43.300390639551;-9.7290768405698;-1.9526210914612;-1.5846622238159;-7.3391259140015
1477848161801;27.210981879711;-43.2648531653;-6.2469507790489;-2.4009352792602;-1.7706617652893;-7.2650554462709
1477848161817;13.460240990739;-39.236697875866;-3.6180015760009;-2.267308972168;-1.8396447006226;-7.2014593185425
1477848161834;10.012618483585;-36.184924958475;2.3983361900156;-1.4543278161422;-1.8647838180542;-7.4277115215577
1477848161849;12.026515128288;-34.4026246606;8.0405883371719;-0.92191727676392;-1.9173066169739;-7.338826346533
1477848161867;11.462829861371;-37.760058788634;13.035229054541;-0.96231942977905;-2.0214543891907;-7.0910266208373
1477848161883;6.3450254653411;-49.447864835981;11.548042447682;-1.3509282867432;-2.6844984653197;-6.3358059269227
1477848161899;-4.1211803314953;-61.160799149285;6.2268542280766;-1.6892589453766;-3.3216555282593;-5.8900350669309
1477848161917;-17.470341528876;-69.147216402376;0.86140344780217;-1.8429367644379;-3.462614151001;-5.9027548477724
1477848161938;-27.706249141712;-67.962847939917;-3.2080743260276;-1.9017442696502;-3.4581250228882;-6.1200285023011
1477848161950;-35.110932353004;-57.62727591426;-7.6840934436322;-2.0837036323547;-3.4222119979858;-6.2038255604066
1477848161967;-50.838433294388;-50.984210021843;-16.043501350882;-2.1470003022125;-3.5377323011536;-5.9956792151853
1477848161985;-100.42259797035;-40.77401977878;-33.153939721822;-2.562394253717;-2.6966192573547;-7.3201220113892
1477848161999;-100.42259797035;-40.77401977878;-33.153939721822;-2.562394253717;-2.6966192573547;-7.3201220113892
1477848162016;-104.04177177757;-21.676483010344;-46.604504895829;-3.4063505581178;-0.93149408340454;-8.6933461184295
1477848162032;-104.04177177757;-21.676483010344;-46.604504895829;-3.4063505581178;-0.93149408340454;-8.6933461184295
1477848162050;-104.31937798619;-12.33532334859;-68.056182474925;-3.8413468530517;-1.1825859825134;-8.5691470625725
1477848162066;-110.48996212768;1.0191992271237;-87.797970006634;-3.7054758357726;-1.2440871837892;-8.5600193057405
1477848162083;-112.05038714546;26.33197409957;-105.78478824243;-3.0169933304718;-0.44606969680786;-9.967809626184
1477848162099;-112.05038714546;26.33197409957;-105.78478824243;-3.0169933304718;-0.44606969680786;-9.967809626184
1477848162118;-94.166472539699;15.734110856953;-126.37538387286;-2.2804770538994;-0.36317046432495;-10.257058895056
1477848162132;-94.166472539699;15.734110856953;-126.37538387286;-2.2804770538994;-0.36317046432495;-10.257058895056
1477848162149;-86.035637766798;11.815166877253;-142.50501220163;-1.7375917817932;-0.38367081604004;-10.588656263379
1477848162167;-81.429931926431;5.3545357644548;-147.05796166085;-1.3831003350189;0.12404957351685;-11.113435047504
1477848162182;-72.435788563197;-2.3939838654104;-150.69633512982;-1.6979379583607;0.33818098449707;-11.587486976214
1477848162200;-63.420983877723;-7.7919634749679;-160.34390903058;-1.8583493462936;0.63581017837524;-11.609782979175
1477848162217;-58.110962590523;-2.4638073951916;-172.61741745963;-1.9991584227631;0.90156641652212;-11.288960395105
1477848162233;-52.696801409048;1.2189780982001;-179.15942728818;-1.5352817689094;1.1333552108765;-11.259780770111
1477848162250;-50.151978792234;5.1991574985735;-182.99392280898;-1.2183494063446;1.1459247695923;-10.908581314087
1477848162266;-47.913708725748;9.8847001394876;-185.54263521853;-1.1490672140702;1.1070191387452;-10.711508882196
1477848162283;-45.767816967786;15.344687621425;-187.75806171734;-0.99239656986846;1.1312602844238;-10.333075309223
1477848162301;-41.431319618461;18.897786178611;-188.92689832962;-0.64718259972837;1.2204441501342;-10.439916192981
1477848162316;-34.53882546284;17.397121900973;-187.45526577105;-0.48662152395938;1.2545616699219;-10.360159496307
1477848162333;-30.552802195301;12.370746417173;-186.17004273531;-0.50293196797026;1.2057798110962;-10.145429607977
1477848162352;-27.319949010182;6.1904138881941;-186.0351464992;-0.55949499132461;1.1309610092163;-9.9169326765089
1477848162367;-26.198737599431;1.446115612162;-184.42397317589;-0.54512978136367;1.1543044023376;-9.7105825470759
1477848162384;-26.64721635807;-0.66163338126655;-182.29794019294;-0.6965630272354;1.1490672323365;-9.4648779504747
1477848162402;-27.420263998522;-1.3621832594331;-179.09643928366;-0.7553706237793;1.2072761140686;-9.4318078573807
1477848162416;-27.999467455233;-1.1561587139693;-177.73951292201;-0.83363109054565;1.2170025583129;-9.4391402278291
1477848162433;-27.218114304751;4.4268953298768;-177.51175343394;-1.0986393233368;1.2240355987549;-9.5165024123152
1477848162449;-26.644477452213;9.8541290665363;-178.64467691157;-1.0151414673736;1.1968016279358;-9.4698156260726
1477848162467;-26.856092080626;17.494774823084;-172.65375406601;-0.54049102478027;1.0944495069642;-9.5446348480776
1477848162483;-26.856092080626;17.494774823084;-172.65375406601;-0.54049102478027;1.0944495069642;-9.5446348480776
1477848162499;-22.141296166383;11.157464910184;-160.53285938377;-0.2721908035223;0.90246438827515;-9.7306340196582
1477848162516;-22.141296166383;11.157464910184;-160.53285938377;-0.2721908035223;0.90246438827515;-9.7306340196582
1477848162534;-16.875018825723;-2.4281047157394;-150.45692333904;-0.14454992865687;0.81492639007568;-10.116100345379
1477848162550;-16.875018825723;-2.4281047157394;-150.45692333904;-0.14454992865687;0.81492639007568;-10.116100345379
1477848162566;-16.074411371971;-9.097000889493;-141.00425571644;0.042048164373206;0.82555062341001;-10.273219792795
1477848162583;-16.074411371971;-9.097000889493;-141.00425571644;0.042048164373206;0.82555062341001;-10.273219792795
1477848162599;-15.988115346902;-7.2980861564626;-135.91486319981;0.1195604362709;0.93074593191836;-10.264391210705
1477848162616;-15.766275925302;-5.1511130941779;-131.84876962463;0.16909048768196;0.83048866433408;-10.323797595126
1477848162633;-14.184398137112;2.2449926801767;-127.14021479574;0.04010287324104;0.67321955191572;-10.076895457591
1477848162650;-14.9521088385;6.883710532349;-125.41369323773;0.22191255952587;0.54917000579834;-10.074800695535
1477848162666;-14.570700829963;11.143593649754;-121.77337999503;0.48153379120344;0.55784897311667;-10.03155517232
1477848162682;-15.175993901757;14.950676206322;-118.81398197107;0.56173957136403;0.50397943804645;-10.019883585358
1477848162700;-16.332437135794;18.098671121193;-117.41666187067;0.58702831041641;0.48063596501006;-10.009857664976
1477848162716;-20.265089305158;21.022255048241;-117.66273992608;0.63581017837524;0.3094505645752;-10.017189852762
1477848162732;-24.87619611761;25.205651999773;-116.49326127601;0.90770170440674;0.38067806396484;-10.31362209194
1477848162751;-30.279010647326;29.647662111396;-115.66969072627;1.0227729851654;0.39534254000015;-10.430339678601
1477848162768;-30.279010647326;29.647662111396;-115.66969072627;1.0227729851654;0.39534254000015;-10.430339678601
1477848162783;-30.69209365814;39.470474760588;-108.94969299814;1.7666215499878;0.9546879119873;-11.206060870361
1477848162801;-25.856333386149;39.720568967237;-101.3765841521;2.0020014641693;1.0256161361694;-11.350460865729
1477848162820;-17.693709205303;32.627274080206;-89.302483095869;2.5377041586945;1.1950059036255;-11.726500456238
1477848162833;-8.8996946536179;23.420397645083;-79.725772407757;2.7361235847473;1.2231377731323;-11.650933320209
1477848162850;-0.1006936436222;16.938724000112;-72.962792299177;2.6107272727966;1.2011410453796;-11.436652271625
1477848162866;5.5254159984311;11.640522355271;-66.427715112633;2.1785738000732;0.94092125244141;-10.674548174872
1477848162884;7.9568049679443;8.3049362948452;-59.378666191045;2.2228666038513;0.6067804741127;-9.8995747784049
1477848162903;6.8948603892822;4.8661853496485;-54.113225548558;2.2551883262634;0.39504327392578;-9.6680853871222
1477848162917;5.3325545081584;-1.3893377436956;-47.192396353165;2.4566005409241;0.28850126351621;-9.5546605309969
1477848162933;3.7478614013694;-6.991265948096;-37.41877814147;2.5492262176514;0.25917232971191;-9.5627404501433
1477848162951;5.5529019603117;-5.9321422375611;-23.740656677528;2.145054976831;0.71975689235078;-9.8470522717461
1477848162966;5.5529019603117;-5.9321422375611;-23.740656677528;2.145054976831;0.71975689235078;-9.8470522717461
1477848162983;9.0981577527837;-5.9492924156802;-9.569063437563;2.1507413519043;0.63655833785294;-9.8069495172361
1477848163001;9.0981577527837;-5.9492924156802;-9.569063437563;2.1507413519043;0.63655833785294;-9.8069495172361
1477848163016;8.8364863754914;-18.350431894;-0.27638123020661;1.8415899894714;0.54946929470559;-9.5908723379164
1477848163033;8.8364863754914;-18.350431894;-0.27638123020661;1.8415899894714;0.54946929470559;-9.5908723379164
1477848163053;11.763388066929;-24.463661229478;10.405440591999;1.4296376663208;0.80953945460664;-9.6005987456282
1477848163066;11.763388066929;-24.463661229478;10.405440591999;1.4296376663208;0.80953945460664;-9.6005987456282
1477848163083;13.764134889934;-16.510916808995;12.727957626802;0.89692781520234;0.56054247281724;-9.3020719270568
1477848163099;13.764134889934;-16.510916808995;12.727957626802;0.89692781520234;0.56054247281724;-9.3020719270568
1477848163116;9.9349148364919;-3.9396428679796;12.603878702792;0.71661449810525;0.50966567840576;-9.2067531022554
1477848163133;10.006560105791;-3.9387724457472;12.468056976052;0.61740475996266;0.63715691680908;-9.2380272153107
1477848163150;11.741724414429;-7.4823356319656;12.710009597211;0.51385550391157;0.84964231414795;-9.24670579447
1477848163166;12.830371190765;-10.772373722137;11.381666723464;0.15188216781616;0.9268553359543;-8.9840923843935
1477848163184;13.158363704898;-9.5125931410526;9.1943934106419;-0.11686696853638;0.95184476098325;-8.9558106580872
1477848163199;14.18786787321;-7.5533798446175;3.8734203419949;-0.63132108679507;0.93912563772891;-8.9881320151731
1477848163216;15.999615677917;-13.473926128515;-3.6226640338831;-0.34790742874146;0.84799630050659;-9.206154588373
1477848163234;17.795687344706;-18.89230665935;-9.7619343193458;-0.29299042816162;0.81432785792695;-9.2733416167328
1477848163249;18.588465694122;-24.257893242995;-14.748953399375;-0.43125557403564;0.90680390618364;-9.3920040173186
1477848163266;18.38608377392;-26.984209353982;-21.124019744233;-0.61785366592407;1.0450690406412;-9.405172455243
1477848163283;14.499280956907;-28.050996109879;-28.209671649582;-0.66962829509126;1.0262146843012;-9.4523079716338
1477848163299;9.4234668563467;-30.128114693088;-34.475055401654;-0.63446345820772;1.0950479569145;-9.792434539524
1477848163316;6.3529066498697;-29.690658152222;-40.889504617266;-0.75282677538223;1.2425906296551;-10.248230678293
1477848163332;3.1005011944775;-27.714723698925;-48.066554698994;-0.87971949305326;1.3548188324749;-10.376021045773
1477848163349;0.77000756594032;-22.823488630495;-54.515981313346;-1.025466516832;1.449539476754;-10.709563154956
1477848163367;-0.12803731211846;-20.911682823315;-59.504512426503;-1.0013748443604;1.5102922753818;-11.078569631958
1477848163382;-3.4366562115556;-25.051361441517;-65.268242689699;-1.1013327819382;1.4966752945389;-11.086351079614
1477848163399;-8.9280416462208;-30.246259890256;-72.869888066086;-1.4263456207718;1.550993708171;-11.184662546893
1477848163418;-14.984289274775;-32.989636106243;-80.15465364612;-1.6867150330475;1.7582418761433;-11.27324830058
1477848163433;-18.161256144558;-31.409010803992;-83.856991836671;-1.7096096594879;1.9120693613494;-11.311106468201
1477848163449;-18.267067727632;-21.783949206745;-86.117770791567;-1.8686743592193;2.1594201959251;-10.962899691186
1477848163467;-18.386257943744;-6.1789690524661;-88.838173666281;-2.0346224983215;1.8302175772515;-10.176553900766
1477848163483;-19.399328676913;18.914002755248;-90.486653482842;-2.0198083755493;1.5939397095833;-9.7382658342775
1477848163499;-19.75242555134;53.593222756478;-83.026468154354;-1.1185411063706;1.2143091545105;-8.4549732329771
1477848163516;-19.75242555134;53.593222756478;-83.026468154354;-1.1185411063706;1.2143091545105;-8.4549732329771
1477848163533;-18.046000117408;45.176155246028;-75.188354798712;-0.70853404466934;1.2333130936554;-8.4441993255064
1477848163550;-12.305940728555;21.67624566127;-64.82171224252;-0.43005845950583;1.4516343940735;-8.7928551614624
1477848163568;-0.95548743598925;-35.962725244396;-54.683160438566;-1.2307692909241;2.0441993414948;-9.1459996871397
1477848163584;-2.3049664368445;-44.249588858697;-56.863916897146;-1.9803040298904;1.9373580558777;-8.9389013896666
1477848163600;-7.5219797574556;-35.619129163104;-61.588205066788;-2.5056817114899;1.6512509209564;-8.7120507093016
1477848163616;-7.5219797574556;-35.619129163104;-61.588205066788;-2.5056817114899;1.6512509209564;-8.7120507093016
1477848163633;-23.733817950622;0.68287137424303;-74.831709641011;-2.8031611946991;1.3543699881623;-8.4145712260924
1477848163650;-29.528796329271;15.125800549094;-81.717038928193;-2.5392004616668;1.3605051299164;-8.5995233774047
1477848163666;-31.594293345607;20.671164541883;-86.265275556883;-2.0214544257233;1.4926351340363;-8.9466829103883
1477848163683;-29.899235054001;16.057914757578;-87.783865665997;-1.7598879308838;1.501164440918;-9.1377699111938
1477848163699;-27.072716652795;8.9595416248992;-86.553967162532;-1.6249146661621;1.2617442749023;-9.0153665705141
1477848163717;-27.141631553973;3.3993463032144;-86.166353927133;-1.838896585669;0.9391256194626;-8.6399257496156
1477848163734;-29.463509966089;2.136239420004;-87.050248707625;-1.8962076783111;0.77108257674065;-8.4886421322145
1477848163749;-34.194409758847;5.6603941968089;-89.006360244403;-2.0371663375854;0.66169744729307;-8.3490301017761
1477848163766;-38.290761072049;9.4200073655321;-89.872817551943;-1.9240403822083;0.59002107162476;-8.5598692662779
1477848163783;-39.331845826099;8.1398104952446;-87.960665112663;-1.8866308716705;0.55530511101987;-8.6967876737181
1477848163800;-37.233205316815;1.5837660153309;-87.010763384033;-1.9413982711792;0.40955812149048;-8.8585459233824
1477848163816;-38.292536921233;-4.2245373153368;-88.190630751828;-2.1300912895203;0.081702058587596;-8.775946258368
1477848163834;-42.835592851437;-2.5153544059708;-88.701139580963;-2.1739351804871;-0.052672436523437;-8.7452706226625
1477848163849;-47.912714933224;3.0032465577725;-86.183921173679;-1.980304121222;-0.28580782318115;-8.7961470426146
1477848163866;-51.058334649811;8.3000911294027;-82.295344215029;-1.559672743988;-0.38666356811523;-9.0008517229494
1477848163884;-51.631404596648;13.396190891798;-76.420316019307;-1.2538134819031;-0.47105917663574;-9.1518356267516
1477848163899;-51.299710119984;11.007001819185;-67.278538117163;-0.42347442777329;-0.95753117258921;-9.411157521002
1477848163916;-47.581648833964;-10.227357069769;-38.155697496307;0.62294127138667;-1.3314752521239;-10.3056917008
1477848163933;-47.581648833964;-10.227357069769;-38.155697496307;0.62294127138667;-1.3314752521239;-10.3056917008
1477848163950;-31.520001378004;-36.555083645449;-7.9154729319556;0.080205755615234;-0.73666592330933;-11.547833157349
1477848163966;-31.520001378004;-36.555083645449;-7.9154729319556;0.080205755615234;-0.73666592330933;-11.547833157349
1477848163982;-12.154323335585;-32.25449943078;1.6589052465553;-0.94002339028623;-0.18719678843394;-11.543343883105
1477848163999;-12.154323335585;-32.25449943078;1.6589052465553;-0.94002339028623;-0.18719678843394;-11.543343883105
1477848164018;1.6335320542841;-10.388214001138;-2.6209025998755;-1.2313678413391;-0.11088146438599;-10.933271518707
1477848164033;1.6335320542841;-10.388214001138;-2.6209025998755;-1.2313678413391;-0.11088146438599;-10.933271518707
1477848164049;8.8768066897092;-2.7363876518055;-11.979494398495;-1.4838064423492;0.41689036407471;-11.680562004144
1477848164068;15.128003285101;1.7389086396858;-19.001120110565;-1.57299045419;0.61530982666016;-11.761665585382
1477848164082;20.68303541066;13.597063340193;-24.727777814493;-1.5804723709106;0.81537530288696;-11.767800727136
1477848164100;24.024994037581;30.758974870492;-28.94398528725;-1.3404536362137;0.90007018661499;-11.629385651398
1477848164116;25.800160202868;47.486043261057;-29.283814519215;-1.0969932457634;1.0485107626099;-11.712584012958
1477848164133;29.205950362677;58.935591819586;-25.419870637807;-0.59899936438296;1.4411597618103;-11.846809381922
1477848164150;33.575768789868;60.584406315417;-17.452374716264;-0.062548518371582;1.8659809097511;-12.197858908081
1477848164166;42.65658725367;54.059297789966;-7.9654545487544;0.041898529052734;2.101959456546;-12.184840728815
1477848164183;51.272973344478;43.632983286091;-0.89723851553032;-0.0043394905090332;2.1006127181122;-11.575665605517
1477848164201;55.151892415642;37.009263904498;3.8041122780527;0.05746083984375;1.5677532248234;-10.562619320325
1477848164216;49.004022068241;36.760088358292;10.789979388497;0.081702131652832;1.4223054009037;-10.025420322827
1477848164233;37.873354551491;41.056816931175;21.731044268981;0.071676412200928;1.6449661415985;-9.855282166423
1477848164252;33.28451586328;43.566597262453;34.757207101172;0.13018471755428;2.1015104341369;-10.466552124842
1477848164266;37.620490703133;43.613240624295;45.18840177521;0.11566986313972;2.2002713256836;-10.50396108739
1477848164284;40.878251880609;41.490759339713;51.550016062498;0.20859481050796;1.6080057265351;-9.9003229207579
1477848164302;41.23917273673;38.29605788375;56.274987251056;0.43424832382755;1.2267290573562;-9.3794347873963
1477848164316;39.006909821619;33.334068885709;59.506691256848;0.45504794390029;1.228973639679;-9.2037599117888
1477848164333;36.240399754914;27.078927002298;61.045703631581;0.37753563775327;1.2686275681427;-9.2496990580019
1477848164349;34.331768278151;23.647352878371;60.590485183778;0.1246481604645;1.3617021942139;-9.3649199398316
1477848164368;27.434993301467;28.416501730481;53.578069981804;0.085143796539307;1.4025532965729;-9.3999350660462
1477848164384;27.434993301467;28.416501730481;53.578069981804;0.085143796539307;1.4025532965729;-9.3999350660462
1477848164401;25.43128388391;34.252903498899;50.116540355725;0.090231475067139;1.5025112158844;-9.1898440895632
1477848164417;22.781035589709;31.986486222843;47.946708784723;0.24929624786377;1.4908394279922;-9.0390093849733
1477848164434;20.200400583529;18.692653399721;48.934255100964;-0.084395608520508;1.2384007995827;-9.163208303833
1477848164449;20.200400583529;18.692653399721;48.934255100964;-0.084395608520508;1.2384007995827;-9.163208303833
1477848164467;22.687299781087;11.779035176544;37.978542879804;-0.72095397491455;1.0541969253374;-9.0755205218993
1477848164483;22.687299781087;11.779035176544;37.978542879804;-0.72095397491455;1.0541969253374;-9.0755205218993
1477848164499;23.727870563402;16.122968894328;31.412132200442;-0.42766427154541;0.62608371586455;-9.0824038516723
1477848164516;23.727870563402;16.122968894328;31.412132200442;-0.42766427154541;0.62608371586455;-9.0824038516723
1477848164532;25.766250021186;1.0416863443055;31.550013229217;-0.49185880355835;0.11432312927246;-9.2781299104553
1477848164549;24.982152842205;-7.0193790067198;29.369745129163;-0.49380409240723;0.11118073959351;-9.4243261781221
1477848164566;23.293520051061;-10.466415398267;25.989078112668;-0.70718731536865;0.35314470834043;-9.7481416512642
1477848164583;21.241539979092;-10.901458321035;21.832411106453;-0.79337857513428;0.47345341482852;-9.9942958291094
1477848164600;19.348571833643;-11.900924171151;16.932610980805;-0.84515318603516;0.52058922348022;-10.025270283365
1477848164617;15.111641566944;-13.255873193036;10.188223500919;-1.0431236627441;0.50368017425537;-9.9603276729308
1477848164632;9.2917364129193;-11.352262759087;2.1840825472624;-1.2078747375488;0.54049102478027;-9.9702040287736
1477848164650;3.9737135591069;-6.8949410708918;-4.9539844432213;-1.2348095792908;0.57161557329707;-9.9992336873704
1477848164666;0.23156475720459;-2.6703162437562;-10.927331077611;-1.1703156259399;0.46866497497559;-9.9733460713927
1477848164683;-2.9847326896969;-2.0983094585522;-17.683853242331;-0.88435823822021;0.14918869094849;-9.7022032208621
1477848164700;-8.9465497513242;-3.1356017500656;-23.009112681569;-0.67217204302363;-0.03845686416626;-9.4922615406312
1477848164716;-17.272773184491;-6.6883965772774;-27.029836725185;-0.46267954389043;-0.088435823822021;-9.4087637212006
1477848164734;-25.585340508187;-7.9932517111291;-31.750349507763;-0.60154316711426;0.29433713006284;-9.6799068856834
1477848164751;-31.918279953792;-3.2479357369107;-34.33630352376;-0.69162507764287;0.57924716415405;-9.930549990712
1477848164766;-36.703824675004;-2.9744827101868;-37.83016043518;-0.97473942395635;1.0304045760224;-10.36764130343
1477848164785;-39.264957783557;-0.32648717779271;-42.151532330588;-1.2035352470398;1.2928688964844;-10.644770510919
1477848164802;-32.848118001735;16.765341355578;-47.579029456417;-1.2699742700439;1.6656162096908;-10.666916364819
1477848164816;-32.848118001735;16.765341355578;-47.579029456417;-1.2699742700439;1.6656162096908;-10.666916364819
1477848164833;-29.727759739793;23.167958976001;-49.458093044263;-0.98760811174922;1.5729904907227;-10.322600384698
1477848164852;-27.164080678227;26.315740447461;-51.65195663586;-0.90201547546387;1.6576853561844;-10.240898508774
1477848164866;-16.852889012812;17.27321543924;-53.98047399185;-0.77796590194702;2.0889409850189;-10.277709030505
1477848164884;-16.852889012812;17.27321543924;-53.98047399185;-0.77796590194702;2.0889409850189;-10.277709030505
1477848164900;-1.1522832219456;-6.3700785992167;-60.108273828375;-1.0128969398499;2.3217770599365;-10.156053877844
1477848164917;-1.1522832219456;-6.3700785992167;-60.108273828375;-1.0128969398499;2.3217770599365;-10.156053877844
1477848164934;1.7016454754518;-13.502111757899;-73.374536592913;-1.2291234234132;1.9008465170929;-9.224409864575
1477848164949;1.7016454754518;-13.502111757899;-73.374536592913;-1.2291234234132;1.9008465170929;-9.224409864575
1477848164967;-6.2098188825129;6.0317631079267;-89.025115943864;-0.99149876251221;1.5304934112549;-8.5299421839174
1477848164986;-8.1964464238424;14.103891551138;-94.887774666998;-0.72948331832886;1.5954361312866;-8.5719902044434
1477848165000;-7.7289848619521;15.634089566748;-99.118537272877;-0.22221184158325;1.5794249076843;-8.5915928766664
1477848165016;-7.7289848619521;15.634089566748;-99.118537272877;-0.22221184158325;1.5794249076843;-8.5915928766664
1477848165035;-11.554315976435;9.1822467729767;-101.52979895557;0.37125089492798;1.3892355498383;-8.5417636276796
1477848165049;-12.841753701016;6.3524891545566;-98.856790763504;0.50846857757568;1.3515268006256;-8.6589293599669
1477848165066;-11.908240157526;0.35992111386248;-93.697047298423;0.71691379614566;1.3123218215058;-8.8480715103149
1477848165083;-10.200956681079;-7.8050714617588;-89.944630160877;0.5319617544312;1.2015899581909;-8.9070286531311
1477848165099;-9.3352737462362;-16.427462142622;-88.02948609874;0.41958384094238;1.0497077614055;-8.7478146080568
1477848165116;-11.251812874511;-22.254991495307;-88.804500833672;0.27159225082397;0.43858781661987;-8.2863316535398
1477848165132;-17.176472639836;-25.082626632443;-88.737605960941;0.49664720687866;0.028281507110596;-8.2731638366699
1477848165150;-22.090223426865;-28.627914868313;-84.440583689925;0.46926352539062;-0.10758943710327;-8.403947102356
1477848165167;-25.539095004864;-36.288361343265;-80.102047529133;0.14365209960938;-0.3815758895874;-8.6707511690553
1477848165182;-27.180155528439;-44.624634546023;-78.336204572063;-0.22804770812988;-0.65945291976929;-8.8961048888609
1477848165200;-32.035264018801;-47.166154766374;-81.465961174303;-0.33773210821841;-0.77512278747559;-8.9481791402955
1477848165218;-40.901068127531;-41.1489425227;-84.073665927712;-0.079307929992676;-0.90590619929209;-9.3331963294432
1477848165232;-48.623689814498;-30.067520669866;-81.615412543532;0.43110593643188;-0.83138652648926;-10.064026970728
1477848165249;-53.930931214705;-18.820265239079;-74.588288529181;0.66768299710923;-0.78963763504028;-10.48226356178
1477848165269;-55.138716980733;-14.214140195853;-66.057484708672;1.3040916711006;-0.71302318191528;-11.26292315979
1477848165283;-51.186725130734;-18.545590889154;-56.134913731558;1.6662147429812;-0.49410322148427;-12.014851826422
1477848165300;-42.351212910973;-29.366941336509;-46.067774970471;1.8293196420311;-0.3336917102538;-12.403012062836
1477848165316;-29.225406156528;-43.169080252758;-35.208084963758;2.2186767144134;0.027234043884277;-13.455263400213
1477848165333;-17.784449975974;-52.585599099171;-25.141820466885;2.1103390162261;0.49993938029185;-14.15601629862
1477848165350;1.7524922851194;-36.262509077257;-8.5234835652654;1.3082814966064;0.85009122695923;-14.273631747437
1477848165366;1.7524922851194;-36.262509077257;-8.5234835652654;1.3082814966064;0.85009122695923;-14.273631747437
1477848165383;22.353762860895;-0.24279345479796;2.3498915792234;1.1782464189392;1.0518027168274;-13.503896205957
1477848165401;22.353762860895;-0.24279345479796;2.3498915792234;1.1782464189392;1.0518027168274;-13.503896205957
1477848165416;36.557945494711;21.166554747289;11.279217301008;1.9231424104553;0.94286654129028;-11.064354351862
1477848165433;36.557945494711;21.166554747289;11.279217301008;1.9231424104553;0.94286654129028;-11.064354351862
1477848165450;36.228402527636;24.12268623328;31.87434817705;2.7961283369202;0.91323822268061;-10.061931861612
1477848165466;36.228402527636;24.12268623328;31.87434817705;2.7961283369202;0.91323822268061;-10.061931861612
1477848165483;34.314245427835;18.733617459268;62.53883079547;3.1142576633178;1.2433387765747;-10.197802732761
1477848165501;37.188706634373;16.951148114212;78.356087252737;3.1060276864425;1.69793782593;-10.439766555377
1477848165516;41.272090833435;15.534203172778;91.725267307688;2.9123966089111;2.1368249816895;-10.438868875885
1477848165534;44.448337118261;10.639228575778;104.37170406543;2.9212252640655;2.127996326535;-10.364498986816
1477848165549;46.763180435532;8.6104515101935;117.33019167577;2.6503811144954;2.1483471502442;-10.193912264661
1477848165566;50.81071980183;6.1086821370385;126.82915432056;1.9577088110882;2.3104045289855;-9.9854667538298
1477848165583;53.416088630543;4.5157253551274;130.86942978068;1.6548422508461;2.3458687141418;-9.8038071595232
1477848165599;53.178473179507;5.3591858426191;131.5417799422;1.1312602844238;2.1202152076721;-9.178770906885
1477848165617;50.589749521802;8.8068339629834;130.82055294698;0.81612347263945;1.9684826774597;-8.6638673278257
1477848165634;45.666050564247;14.163538739386;129.86882072765;0.6887818901062;1.903539957428;-8.415169630377
1477848165649;38.782684956452;17.928324495746;129.94321514809;0.76883800811768;1.8905215589661;-8.0428714183532
1477848165666;31.493643677997;20.642759492672;132.20374821618;0.70015434799194;2.030133443274;-8.0575360496521
1477848165684;26.841410589005;20.889602529276;134.29153213977;0.61650694575654;2.1670518507142;-8.0970403770447
1477848165699;24.136787158821;20.538559834241;134.35099576669;0.28490997929228;2.4158991127014;-7.9084969963074
1477848165718;18.099777611838;24.935150895431;131.15676217868;-0.048632221221924;2.4429835007156;-7.4043679092407
1477848165733;8.055486687299;32.456208577349;126.55742207462;-0.052971711730957;2.2489035286392;-7.2889973167419
1477848165750;-3.007017675968;40.465793832104;125.01218739756;0.27323826446533;2.1121347588028;-7.5734584014893
1477848165766;-5.72513371797;35.18704456602;125.11380695203;0.29314006576538;2.453458206044;-8.5058504566468
1477848165782;-4.041549717283;12.306872195603;118.85137042658;0.14395137481689;2.4733599068794;-8.8829369989257
1477848165801;1.4280947983672;-28.732590932438;99.421066841784;-0.10100538253784;2.2315455392036;-9.8524390336853
1477848165818;1.4280947983672;-28.732590932438;99.421066841784;-0.10100538253784;2.2315455392036;-9.8524390336853
1477848165834;-1.9969754913654;-33.160725514763;83.382375651625;-0.41449616241455;2.2239140077121;-10.120589692688
1477848165851;-1.9969754913654;-33.160725514763;83.382375651625;-0.41449616241455;2.2239140077121;-10.120589692688
1477848165871;-9.0646035947124;-18.089315469577;60.899674187126;-0.82405435697027;1.8249802611199;-10.439168224158
1477848165884;-9.0646035947124;-18.089315469577;60.899674187126;-0.82405435697027;1.8249802611199;-10.439168224158
1477848165901;-7.6107303817571;-23.058679364375;40.190462076472;-0.86625201510005;1.3881880683457;-10.643722536236
1477848165916;-7.6107303817571;-23.058679364375;40.190462076472;-0.86625201510005;1.3881880683457;-10.643722536236
1477848165934;-30.802199722655;2.3588583369431;16.665183461589;-0.97892920379639;1.0761936645065;-10.375721734033
1477848165953;-40.025260291017;22.338198567324;8.9000122574144;-0.9703998969147;1.2991536758423;-10.759691971411
1477848165966;-45.614622654892;39.817414219479;2.6010594062327;-0.7399578775268;1.2556091331482;-10.84618272558
1477848165984;-43.120213664341;48.505589013559;-2.226796629341;-0.21024083328247;1.407341626828;-11.186159215192
1477848166002;-34.873818920872;49.98154166678;-2.8166449358741;0.37738600014951;1.4348749824524;-10.989235836383
1477848166016;-24.996754079103;46.115985860727;1.6826045088714;0.67247137303008;1.3949217422485;-10.827776715796
1477848166033;-15.542385739404;36.351260555332;9.6335122487975;1.2309189285278;1.3304278984955;-10.389787522656
1477848166049;-8.1211709089997;25.064091206583;18.745751290329;1.4067431494782;1.2223895851135;-10.052055377905
1477848166067;-3.3627119432708;14.489216673165;28.793307899065;1.4077905579056;1.2307692909241;-9.9432692600968
1477848166084;1.8241403291826;3.8609373175131;39.659869076083;1.2065279741415;1.5337854385376;-9.8500449050903
1477848166099;5.732033916579;-6.9480987256547;49.56966759945;0.96815531459199;1.8881272842407;-9.6618005803648
1477848166117;10.106443938439;-18.90279441482;55.135503376729;0.78829089660645;1.9095254615784;-9.641450368577
1477848166135;12.523612027214;-24.037865529072;56.755190530843;0.50906712799072;1.8906711235046;-9.5489739184615
1477848166149;11.594347715161;-29.478553457736;57.274213190778;0.41928456573486;1.7456722854614;-9.3453170484129
1477848166166;11.668343423308;-32.292762150511;57.230568281982;0.2268506072998;1.6572364251068;-9.3921539471833
1477848166185;9.3915416983924;-29.888480921153;57.132162331515;0.039055414581299;1.3320739121368;-9.2342861656189
1477848166199;7.3641639678142;-26.136878283665;57.499694810753;-0.046986207580566;1.2322656304291;-9.3755442827638
1477848166217;5.7382387165532;-21.322470890567;57.383431330701;-0.13766659545898;1.2321160293579;-9.4172928819519
1477848166232;4.5183524166369;-15.652869171871;57.261587586097;-0.15876549758911;1.206527999115;-9.3493574829102
1477848166249;2.3155739340689;-13.447515494542;58.594437530923;-0.32890345306396;0.99284550094604;-9.123404408972
1477848166267;-3.8485439392641;-18.168125607315;60.582166013369;-0.44606969680786;0.90590605316162;-8.9335145820618
1477848166282;-17.046289234256;-24.140340564737;60.644832999004;-0.80983863848262;0.35718497844087;-8.4093343483523
1477848166299;-34.374617469909;-25.33835403761;63.983798295521;-1.0203787835052;-0.090830025482178;-8.3253875065126
1477848166318;-81.047454993289;-11.04516977004;75.435634967423;-1.2966098000458;-0.1662473777771;-8.604311780725
1477848166332;-81.047454993289;-11.04516977004;75.435634967423;-1.2966098000458;-0.1662473777771;-8.604311780725
1477848166349;-77.00152413654;31.430645428188;103.74200160509;0.23552958831787;0.51475335693359;-10.645368769073
1477848166369;-77.00152413654;31.430645428188;103.74200160509;0.23552958831787;0.51475335693359;-10.645368769073
1477848166384;15.775197859906;51.685940242076;120.09595383676;-1.2440870376587;2.8556840301514;-11.318139435577
1477848166400;15.775197859906;51.685940242076;120.09595383676;-1.2440870376587;2.8556840301514;-11.318139435577
1477848166416;14.806279177079;43.004578561693;71.708161680726;0.010474632263184;1.4627075767517;-9.7786677406975
1477848166434;2.5388790715762;35.707320565667;50.687875434513;0.85951835946348;1.0866683059029;-9.891793778273
1477848166450;1.0258231232365;17.730880802313;42.804389132214;1.188721087735;0.89498254461978;-10.21620812149
1477848166466;7.3098127374939;-9.8686065062557;48.92074840188;1.5979800162163;0.74280102853086;-10.886135673523
1477848166484;16.673150877256;-38.064299319928;58.934765366697;1.8065747901917;0.93448680808027;-10.922348265894
1477848166500;22.69931237629;-56.073209802596;68.302765964341;1.3491326309315;0.80415251000444;-10.248978574051
1477848166516;21.302970700487;-63.300560812467;76.525760479714;1.1345523436726;0.46746791067813;-9.9806787889009
1477848166535;18.649355123025;-63.258493677368;82.094857672321;0.7416039642334;0.40297406692505;-10.084975869928
1477848166552;44.737284856004;-63.171716123963;69.002436882539;-0.55754978467412;1.3521253875732;-10.795156083502
1477848166567;33.251850483575;-42.433878690498;76.874639712329;0.80534959256821;-0.49200844116211;-10.865186408997
1477848166583;13.857115108879;-28.706007836189;97.636140336174;1.74282917099;-0.14978724136353;-10.506355215985
1477848166599;2.063085959559;-26.073466807411;104.7092588444;2.4170962135315;1.7368437033722;-10.856956121594
1477848166617;4.0346337238616;-41.619214707434;109.00243571891;2.39435129776;2.1196165841918;-10.833463310065
1477848166633;12.426901671208;-67.325085856356;106.60423335791;1.9807529244354;2.0108300827911;-9.8829652144501
1477848166649;14.380951344631;-78.662530520039;99.087097912127;1.8866309538689;1.1837831198761;-8.7596355403624
1477848166667;8.8168700721951;-78.751336639627;96.954186928683;1.8016366899021;0.82151044464111;-8.4108305782594
1477848166685;4.3107313144546;-67.798581890378;99.292201662714;1.2053308617523;0.81687167892456;-8.3837457335874
1477848166700;1.3376254209941;-49.782117218488;99.533519076279;0.8813654496124;0.82210899505615;-8.5046532096863
1477848166716;-3.5687561255285;-29.049771257116;102.60176982504;0.97069909905698;0.69222355499268;-8.4483897629336
1477848166734;-12.944057128179;-16.503763893387;89.591003946789;1.2361561715942;0.48766894151992;-8.5945857018068
1477848166749;-12.944057128179;-16.503763893387;89.591003946789;1.2361561715942;0.48766894151992;-8.5945857018068
1477848166766;-20.306437562846;-31.579096174703;75.464232969478;1.7130512147766;1.0896610305786;-8.9875338300843
1477848166782;-20.306437562846;-31.579096174703;75.464232969478;1.7130512147766;1.0896610305786;-8.9875338300843
1477848166804;-4.9479909522246;-42.461978088743;73.1731074841;0.57191492156982;1.315164862912;-8.8664772278383
1477848166816;-4.9479909522246;-42.461978088743;73.1731074841;0.57191492156982;1.315164862912;-8.8664772278383
1477848166832;16.836680973912;-25.314625960433;59.439707591658;0.47674540557861;0.98790746002197;-7.7311764358521
1477848166849;16.836680973912;-25.314625960433;59.439707591658;0.47674540557861;0.98790746002197;-7.7311764358521
1477848166867;-17.771349673146;8.7318837358999;62.879213272758;-0.26605565948486;0.83707273716582;-7.4845738109864
1477848166883;-17.771349673146;8.7318837358999;62.879213272758;-0.26605565948486;0.83707273716582;-7.4845738109864
1477848166899;-23.80968256928;22.95696760235;75.45853659171;0.13587094421387;0.95708209538115;-9.1946323832856
1477848166918;-27.535987893629;17.557095176619;81.886359317717;0.55006790448613;0.44816465979312;-8.9484781963073
1477848166932;-39.19872885427;9.8362399473263;87.755581852644;-0.40970772256162;0.92670568921738;-9.590872611911
1477848166950;-43.937189666439;-5.4306970694555;86.43679526732;-0.67815758370664;1.0675146789219;-9.8793737475631
1477848166966;-41.10038670789;-9.7589128144117;81.313531842596;-1.4110826034546;1.7085621231964;-9.7137252569861
1477848166983;-44.617408205881;-6.3333138253487;80.860765432705;-1.7978958091736;1.9921254188538;-9.3191307965485
1477848166999;-46.26725747537;-0.54094031009443;79.783207468487;-1.7996914604187;1.685667679419;-9.6609031822881
1477848167016;-31.453434354354;-3.9410255543997;72.593470310376;-1.6499042190552;1.7757494712166;-11.445181615039
1477848167033;-18.060572326003;-15.374328934876;59.613378811684;-1.5111901603699;2.2197241411071;-10.956016288348
1477848167050;-15.951239155573;-21.521956810561;48.853686189514;-1.4212579605103;2.2183774392059;-10.56381649422
1477848167066;-15.910471463965;-22.495986182435;40.559002008613;-1.3356652876923;2.1486463523865;-10.91785884552
1477848167083;-6.8562796388686;-24.142562083765;33.601815716268;-1.7794903839111;2.4576480772156;-11.531373313196
1477848167102;4.597186886924;-22.312894423996;31.525380151976;-1.7519570648193;2.6409541418213;-11.473612759753
1477848167116;14.166992253786;-18.836621834594;20.511047832265;-1.9503765274048;2.7907413101196;-11.389815993909
1477848167133;27.560800263337;-21.598005844328;-0.37009187918644;-1.8483236816406;2.3763947853088;-11.934047666522
1477848167151;37.358457325815;-40.236248249573;-13.644172862446;-1.9399018951416;2.0034978402069;-11.579406984003
1477848167166;35.715479226631;-37.40257010257;-15.036664872878;-2.6690858651977;1.0808324484894;-10.842890406036
1477848167183;26.10571383803;1.4279361031907;-3.9764896041177;-2.9571383255005;0.59436063519903;-10.782287030383
1477848167199;20.523094578413;39.040941239159;9.2892544929296;-2.8019642034668;0.84081362246089;-11.047744139453
1477848167217;29.740808816202;31.838277948043;-7.2840279196034;0.45983635635376;4.6698903381348;-11.648688610022
1477848167233;29.740808816202;31.838277948043;-7.2840279196034;0.45983635635376;4.6698903381348;-11.648688610022
1477848167249;63.362394515023;-43.487435369972;-49.984567440582;0.279822392096;3.9727285960875;-10.522516077191
1477848167267;63.362394515023;-43.487435369972;-49.984567440582;0.279822392096;3.9727285960875;-10.522516077191
1477848167284;76.718405965254;-48.155818441257;-61.8657566339;-0.21547814941406;3.0409354566712;-8.6436662513182
1477848167299;76.718405965254;-48.155818441257;-61.8657566339;-0.21547814941406;3.0409354566712;-8.6436662513182
1477848167317;52.924362821626;-17.664573325851;-63.045542039426;-0.98835640936587;2.24321728143;-7.792228870447
1477848167334;52.924362821626;-17.664573325851;-63.045542039426;-0.98835640936587;2.24321728143;-7.792228870447
1477848167349;30.640399371406;-1.1449814295577;-64.507557691645;-1.2050315865448;1.0664672248287;-7.5727102134705
1477848167366;30.640399371406;-1.1449814295577;-64.507557691645;-1.2050315865448;1.0664672248287;-7.5727102134705
1477848167385;18.141825963916;-1.1149059722081;-64.357184246878;-1.4654011084183;0.43903672943115;-7.9379757503785
1477848167399;0.83385820201401;-0.34390909605513;-61.375287579791;-1.197549779422;0.46342764057769;-8.6776341335021
1477848167417;-1.4901234814798;6.2466370172339;-56.745628266005;-1.2041338339875;0.63326632084502;-9.1727850374084
1477848167433;3.5364168873558;-5.5351012066742;-58.801078074072;-1.8151041701386;0.283413621521;-9.3493577751711
1477848167449;4.5463587535549;-14.031667423307;-59.472642763835;-1.8420388657501;0.1885433807373;-8.8678237470765
1477848167467;5.620619443951;-22.309986470957;-59.397148682939;-2.1103390892914;-0.081402856445312;-8.7708585067749
1477848167482;5.9675943344481;-32.599704021622;-62.302130589783;-2.4039281044006;-0.16415245132446;-8.6834703653749
1477848167500;3.7161834108857;-33.347538018752;-70.064100996558;-2.976142301178;0.11746551895142;-8.2602952950075
1477848167516;5.5998616452897;-25.617297255766;-78.62960900824;-3.3607109428406;0.38397009124756;-8.3835962421142
1477848167532;3.9537792251274;-16.967822313523;-83.747107753304;-3.4253543876648;0.45848961791992;-8.3068324436463
1477848167550;2.6318424284918;-9.9791744623136;-86.058573542031;-3.7579987808228;0.15143325500488;-8.2502694294251
1477848167566;3.5955375107075;-0.45050316267647;-85.999943198195;-3.9046436325073;-0.34132337417603;-8.8343047777038
1477848167583;4.9554977570092;9.8405284523515;-79.276352790559;-3.8979099403381;-0.44771571044922;-8.9653873916626
1477848167600;5.7485505946526;19.783629270564;-69.965978498942;-3.3285388580322;-0.47973819418643;-8.9971107828554
1477848167618;5.4270749347613;28.898509887756;-64.124302116938;-2.6030957550049;-0.35164833230283;-9.2859113581117
1477848167632;8.3092674885527;35.700042999106;-58.657425535449;-2.4000374536376;-0.25004443588257;-9.5257803456071
1477848167650;13.933009609615;36.023698343117;-53.46363016226;-2.1438580221314;-0.33010055389404;-9.7228526724665
1477848167666;16.780352403827;27.894574532602;-48.821864338171;-1.8308160089355;-0.66932903815005;-9.8600703688139
1477848167684;16.702705105795;11.71252364818;-47.322432909678;-1.590198869954;-0.86789813833926;-9.8855091633119
1477848167701;16.428725727618;5.3468786955084;-40.802501667619;-1.3624503457;-0.88226329350127;-10.279953740692
1477848167717;16.428725727618;5.3468786955084;-40.802501667619;-1.3624503457;-0.88226329350127;-10.279953740692
1477848167734;14.134275647661;7.7501533257373;-31.236609999151;-0.93179337687837;-1.1635819885696;-10.614693206433
1477848167750;14.134275647661;7.7501533257373;-31.236609999151;-0.93179337687837;-1.1635819885696;-10.614693206433
1477848167766;14.653624449129;17.133867627341;-20.425320420444;-0.75671739874575;-1.406294229817;-11.263820839282
1477848167784;14.653624449129;17.133867627341;-20.425320420444;-0.75671739874575;-1.406294229817;-11.263820839282
1477848167803;6.2091397055774;33.648179040354;-13.660926462706;-0.37274727096558;-2.1679496763367;-11.297190171051
1477848167816;6.2091397055774;33.648179040354;-13.660926462706;-0.37274727096558;-2.1679496763367;-11.297190171051
1477848167833;0.65625161908741;31.733817034877;4.2992399480629;0.88061729812622;-1.8481740805695;-12.327595002802
1477848167852;5.1310088592428;17.95592016754;20.226082094808;1.1495160720825;-0.7618051138062;-13.050493682043
1477848167867;20.018466542154;5.2365310130513;28.497808302361;0.83168587476201;-0.12749123840332;-12.934674176733
1477848167886;34.916654452252;-4.4591624241764;26.534837548109;0.10459668502808;0.18136077575684;-11.574318867084
1477848167900;39.355153846642;-4.6490118010251;23.356699300883;0.078110829162598;-0.67082545072027;-9.8705453664033
1477848167917;35.386247033163;2.2942716412647;24.233053552531;0.25228899993896;-1.243039610965;-8.7442230863709
1477848167934;24.33066378596;9.6414403908766;28.410480918728;0.3347393196106;-1.3648445108276;-8.507945236969
1477848167949;12.905166884818;17.217262529559;36.327604195142;0.37319618377686;-1.3919289536407;-8.5422123212952
1477848167967;5.7119847500441;18.892310074444;40.570152292433;-0.015263035583496;-1.1195885513306;-8.8181437703673
1477848167985;2.291625796735;16.042350464007;38.333958603455;-0.11043255157471;-0.97159696121216;-8.9178027797975
1477848167999;0.024392012918611;15.605191036369;34.652742772912;-0.17522563400269;-0.79622161654048;-9.2701994462496
1477848168016;-0.58428799894021;11.578153336638;34.820734690643;0.17642273483276;-0.65930328216553;-9.5753103445025
1477848168035;0.22646265925544;4.8730910977862;39.237404800445;0.12704228905942;-0.6388028573852;-9.5985039390482
1477848168049;3.5571738322435;0.38533595427941;39.494178932103;-0.45115737533569;-0.7712321367126;-9.2544871690612
1477848168066;7.8383105773546;0.75404968271823;36.24252735884;-0.80415246433867;-0.83812021865845;-8.8964046755251
1477848168083;10.15908591392;2.4675661336692;31.269487114721;-0.89917234272612;-0.86370817583613;-8.6747913112916
1477848168100;9.5955287130495;2.4904244289437;26.706919041605;-0.78978727264404;-0.97623579999395;-8.5490958702639
1477848168116;7.4683243526569;4.8739849987938;23.20638049763;-0.83482819137573;-1.0221745443482;-8.5543328210693
1477848168132;6.6973949246221;7.2276532457414;20.46055907392;-0.90291330108643;-1.0149918663025;-8.6628200107299
1477848168150;7.3050563645106;8.8343280357136;16.570035511356;-1.2813467644623;-1.0907085668702;-8.6343888660155
1477848168168;8.5392262975286;11.215279046414;10.429620315434;-1.7054198065827;-1.4339771568298;-8.5270988502502
1477848168183;11.239928345355;12.21767163259;3.2864936488793;-1.6482582054138;-1.4652514890809;-8.6670100097656
1477848168200;11.707117553452;8.4542903338786;-2.8726460837658;-1.1373953896454;-1.369483386142;-8.803030810779
1477848168218;16.151034141627;-5.598782048514;-5.38756399796;-0.84006552577363;-1.4805144150665;-9.5548097165095
1477848168233;16.151034141627;-5.598782048514;-5.38756399796;-0.84006552577363;-1.4805144150665;-9.5548097165095
1477848168250;22.977987509521;-17.710666857465;-10.83543600497;-1.0989385620117;-2.4157494020324;-9.5907227619614
1477848168266;22.977987509521;-17.710666857465;-10.83543600497;-1.0989385620117;-2.4157494020324;-9.5907227619614
1477848168283;12.739192434213;-13.644651829462;-15.542151805425;-0.8391676544853;-2.5462334290436;-9.7036995660753
1477848168300;12.739192434213;-13.644651829462;-15.542151805425;-0.8391676544853;-2.5462334290436;-9.7036995660753
1477848168316;2.5673622410757;-17.854611386675;-16.230269458641;-0.25992051773071;-2.0295348563263;-10.436175325952
