timestamp;gyro-alpha;gyro-beta;gyro-gamma;accel-x;accel-y;accel-z
1487264788903;-0.046875;2.0234375;3.1796875;-0.44189453125;0.839111328125;0.267333984375
1487264789044;-4.859375;-37.296875;24.546875;-0.30859375;0.853515625;0.341064453125
1487264789183;-4.859375;-37.296875;24.546875;-0.30859375;0.853515625;0.341064453125
1487264789323;-4.859375;-37.296875;24.546875;-0.30859375;0.853515625;0.341064453125
1487264789464;-4.859375;-37.296875;24.546875;-0.30859375;0.853515625;0.341064453125
1487264789610;-4.859375;-37.296875;24.546875;-0.30859375;0.853515625;0.341064453125
1487264789743;-4.859375;-37.296875;24.546875;-0.30859375;0.853515625;0.341064453125
1487264789883;-4.859375;-37.296875;24.546875;-0.30859375;0.853515625;0.341064453125
1487264790023;-2.59375;1.3359375;-0.1328125;-0.33984375;0.894775390625;0.284423828125
1487264790163;-2.59375;1.3359375;-0.1328125;-0.33984375;0.894775390625;0.284423828125
1487264790303;-2.59375;1.3359375;-0.1328125;-0.33984375;0.894775390625;0.284423828125
1487264790443;-2.59375;1.3359375;-0.1328125;-0.33984375;0.894775390625;0.284423828125
1487264790583;-2.59375;1.3359375;-0.1328125;-0.33984375;0.894775390625;0.284423828125
1487264790723;-2.59375;1.3359375;-0.1328125;-0.33984375;0.894775390625;0.284423828125
1487264790864;-2.59375;1.3359375;-0.1328125;-0.33984375;0.894775390625;0.284423828125
1487264791003;-29.0234375;24.6328125;14.6328125;-0.337646484375;0.81787109375;0.215087890625
1487264791143;-29.0234375;24.6328125;14.6328125;-0.337646484375;0.81787109375;0.215087890625
1487264791283;-29.0234375;24.6328125;14.6328125;-0.337646484375;0.81787109375;0.215087890625
1487264791423;-29.0234375;24.6328125;14.6328125;-0.337646484375;0.81787109375;0.215087890625
1487264791563;-29.0234375;24.6328125;14.6328125;-0.337646484375;0.81787109375;0.215087890625
1487264791710;-29.0234375;24.6328125;14.6328125;-0.337646484375;0.81787109375;0.215087890625
1487264791843;-29.0234375;24.6328125;14.6328125;-0.337646484375;0.81787109375;0.215087890625
1487264791983;-11.53125;-0.203125;14.328125;-0.3701171875;0.73046875;0.341064453125
1487264792123;-11.53125;-0.203125;14.328125;-0.3701171875;0.73046875;0.341064453125
1487264792263;-11.53125;-0.203125;14.328125;-0.3701171875;0.73046875;0.341064453125
1487264792410;-11.53125;-0.203125;14.328125;-0.3701171875;0.73046875;0.341064453125
1487264792543;-11.53125;-0.203125;14.328125;-0.3701171875;0.73046875;0.341064453125
1487264792683;-11.53125;-0.203125;14.328125;-0.3701171875;0.73046875;0.341064453125
1487264792823;-11.53125;-0.203125;14.328125;-0.3701171875;0.73046875;0.341064453125
1487264792963;-11.53125;-0.203125;14.328125;-0.3701171875;0.73046875;0.341064453125
1487264793110;-5.4921875;-7.0234375;0.921875;-0.210693359375;0.900146484375;0.470458984375
1487264793243;-5.4921875;-7.0234375;0.921875;-0.210693359375;0.900146484375;0.470458984375
1487264793383;-5.4921875;-7.0234375;0.921875;-0.210693359375;0.900146484375;0.470458984375
1487264793523;-5.4921875;-7.0234375;0.921875;-0.210693359375;0.900146484375;0.470458984375
1487264793663;-5.4921875;-7.0234375;0.921875;-0.210693359375;0.900146484375;0.470458984375
1487264793803;-5.4921875;-7.0234375;0.921875;-0.210693359375;0.900146484375;0.470458984375
1487264793950;-5.4921875;-7.0234375;0.921875;-0.210693359375;0.900146484375;0.470458984375
1487264794083;0.0078125;0.21875;-7.5546875;-0.333984375;0.85888671875;0.4912109375
1487264794223;0.0078125;0.21875;-7.5546875;-0.333984375;0.85888671875;0.4912109375
1487264794370;0.0078125;0.21875;-7.5546875;-0.333984375;0.85888671875;0.4912109375
1487264794503;0.0078125;0.21875;-7.5546875;-0.333984375;0.85888671875;0.4912109375
1487264794643;0.0078125;0.21875;-7.5546875;-0.333984375;0.85888671875;0.4912109375
1487264794783;0.0078125;0.21875;-7.5546875;-0.333984375;0.85888671875;0.4912109375
1487264794923;0.0078125;0.21875;-7.5546875;-0.333984375;0.85888671875;0.4912109375
1487264795063;-2.84375;-2.5234375;2.1640625;-0.341064453125;0.871337890625;0.303466796875
1487264795203;-2.84375;-2.5234375;2.1640625;-0.341064453125;0.871337890625;0.303466796875
1487264795343;-2.84375;-2.5234375;2.1640625;-0.341064453125;0.871337890625;0.303466796875
1487264795483;-2.84375;-2.5234375;2.1640625;-0.341064453125;0.871337890625;0.303466796875
1487264795623;-2.84375;-2.5234375;2.1640625;-0.341064453125;0.871337890625;0.303466796875
1487264795763;-2.84375;-2.5234375;2.1640625;-0.341064453125;0.871337890625;0.303466796875
1487264795903;-2.84375;-2.5234375;2.1640625;-0.341064453125;0.871337890625;0.303466796875
1487264796050;2.1875;-9.6875;4.7890625;-0.022705078125;0.97265625;0.416259765625
1487264796184;2.1875;-9.6875;4.7890625;-0.022705078125;0.97265625;0.416259765625
1487264796323;2.1875;-9.6875;4.7890625;-0.022705078125;0.97265625;0.416259765625
1487264796463;2.1875;-9.6875;4.7890625;-0.022705078125;0.97265625;0.416259765625
1487264796603;2.1875;-9.6875;4.7890625;-0.022705078125;0.97265625;0.416259765625
1487264796743;2.1875;-9.6875;4.7890625;-0.022705078125;0.97265625;0.416259765625
1487264796883;2.1875;-9.6875;4.7890625;-0.022705078125;0.97265625;0.416259765625
1487264797023;0.7890625;-7.7109375;3.8671875;-0.15625;1.02612304688;0.27587890625
1487264797163;0.7890625;-7.7109375;3.8671875;-0.15625;1.02612304688;0.27587890625
1487264797303;0.7890625;-7.7109375;3.8671875;-0.15625;1.02612304688;0.27587890625
1487264797443;0.7890625;-7.7109375;3.8671875;-0.15625;1.02612304688;0.27587890625
1487264797590;0.7890625;-7.7109375;3.8671875;-0.15625;1.02612304688;0.27587890625
1487264797723;0.7890625;-7.7109375;3.8671875;-0.15625;1.02612304688;0.27587890625
1487264797863;0.7890625;-7.7109375;3.8671875;-0.15625;1.02612304688;0.27587890625
1487264798010;9.359375;3.0625;3.2265625;-0.1689453125;1.009765625;0.27734375
1487264798143;9.359375;3.0625;3.2265625;-0.1689453125;1.009765625;0.27734375
1487264798283;9.359375;3.0625;3.2265625;-0.1689453125;1.009765625;0.27734375
1487264798423;9.359375;3.0625;3.2265625;-0.1689453125;1.009765625;0.27734375
1487264798563;9.359375;3.0625;3.2265625;-0.1689453125;1.009765625;0.27734375
1487264798704;9.359375;3.0625;3.2265625;-0.1689453125;1.009765625;0.27734375
1487264798850;9.359375;3.0625;3.2265625;-0.1689453125;1.009765625;0.27734375
1487264799194;4.1875;-12.8125;19.09375;0.039794921875;0.95068359375;0.2333984375
1487264799340;4.1875;-12.8125;19.09375;0.039794921875;0.95068359375;0.2333984375
1487264799543;4.1875;-12.8125;19.09375;0.039794921875;0.95068359375;0.2333984375
1487264799684;4.1875;-12.8125;19.09375;0.039794921875;0.95068359375;0.2333984375
1487264799830;4.1875;-12.8125;19.09375;0.039794921875;0.95068359375;0.2333984375
1487264799963;4.1875;-12.8125;19.09375;0.039794921875;0.95068359375;0.2333984375
1487264800103;21.875;67.0234375;-92.25;0.1064453125;0.732421875;0.14208984375
1487264800250;21.875;67.0234375;-92.25;0.1064453125;0.732421875;0.14208984375
1487264800383;21.875;67.0234375;-92.25;0.1064453125;0.732421875;0.14208984375
1487264800523;21.875;67.0234375;-92.25;0.1064453125;0.732421875;0.14208984375
1487264800663;21.875;67.0234375;-92.25;0.1064453125;0.732421875;0.14208984375
1487264800803;21.875;67.0234375;-92.25;0.1064453125;0.732421875;0.14208984375
1487264800943;21.875;67.0234375;-92.25;0.1064453125;0.732421875;0.14208984375
1487264801083;0.0859375;-12.234375;42.0390625;-0.173095703125;0.978759765625;0.413330078125
1487264801223;0.0859375;-12.234375;42.0390625;-0.173095703125;0.978759765625;0.413330078125
1487264801363;0.0859375;-12.234375;42.0390625;-0.173095703125;0.978759765625;0.413330078125
1487264801503;0.0859375;-12.234375;42.0390625;-0.173095703125;0.978759765625;0.413330078125
1487264801713;0.0859375;-12.234375;42.0390625;-0.173095703125;0.978759765625;0.413330078125
1487264801860;0.0859375;-12.234375;42.0390625;-0.173095703125;0.978759765625;0.413330078125
1487264801993;-4.125;4.6640625;5.6015625;0.037841796875;0.983154296875;0.169189453125
1487264802133;-4.125;4.6640625;5.6015625;0.037841796875;0.983154296875;0.169189453125
1487264802273;-4.125;4.6640625;5.6015625;0.037841796875;0.983154296875;0.169189453125
1487264802413;-4.125;4.6640625;5.6015625;0.037841796875;0.983154296875;0.169189453125
1487264802553;-4.125;4.6640625;5.6015625;0.037841796875;0.983154296875;0.169189453125
1487264802693;-4.125;4.6640625;5.6015625;0.037841796875;0.983154296875;0.169189453125
1487264802840;-4.125;4.6640625;5.6015625;0.037841796875;0.983154296875;0.169189453125
1487264802973;-4.125;4.6640625;5.6015625;0.037841796875;0.983154296875;0.169189453125
1487264803113;-1.34375;14.9609375;0.53125;0.011962890625;0.93505859375;0.146484375
1487264803253;-1.34375;14.9609375;0.53125;0.011962890625;0.93505859375;0.146484375
1487264803393;-1.34375;14.9609375;0.53125;0.011962890625;0.93505859375;0.146484375
1487264803533;-1.34375;14.9609375;0.53125;0.011962890625;0.93505859375;0.146484375
1487264803673;-1.34375;14.9609375;0.53125;0.011962890625;0.93505859375;0.146484375
1487264803813;-1.34375;14.9609375;0.53125;0.011962890625;0.93505859375;0.146484375
1487264803953;-1.34375;14.9609375;0.53125;0.011962890625;0.93505859375;0.146484375
1487264804163;1.171875;-4.875;5.140625;-0.040771484375;0.99609375;0.24951171875
1487264804303;1.171875;-4.875;5.140625;-0.040771484375;0.99609375;0.24951171875
1487264804443;1.171875;-4.875;5.140625;-0.040771484375;0.99609375;0.24951171875
1487264804583;1.171875;-4.875;5.140625;-0.040771484375;0.99609375;0.24951171875
1487264804723;1.171875;-4.875;5.140625;-0.040771484375;0.99609375;0.24951171875
1487264804863;1.171875;-4.875;5.140625;-0.040771484375;0.99609375;0.24951171875
1487264805003;-15.0703125;-6.7734375;-5.0078125;0.048095703125;0.9345703125;0.281982421875
1487264805143;-15.0703125;-6.7734375;-5.0078125;0.048095703125;0.9345703125;0.281982421875
1487264805283;-15.0703125;-6.7734375;-5.0078125;0.048095703125;0.9345703125;0.281982421875
1487264805423;-15.0703125;-6.7734375;-5.0078125;0.048095703125;0.9345703125;0.281982421875
1487264805563;-15.0703125;-6.7734375;-5.0078125;0.048095703125;0.9345703125;0.281982421875
1487264805703;-15.0703125;-6.7734375;-5.0078125;0.048095703125;0.9345703125;0.281982421875
1487264805843;-15.0703125;-6.7734375;-5.0078125;0.048095703125;0.9345703125;0.281982421875
1487264805983;-22.6953125;68.703125;-11.015625;-0.208740234375;1.09838867188;0.16796875
1487264806193;-22.6953125;68.703125;-11.015625;-0.208740234375;1.09838867188;0.16796875
1487264806340;-22.6953125;68.703125;-11.015625;-0.208740234375;1.09838867188;0.16796875
1487264806473;-22.6953125;68.703125;-11.015625;-0.208740234375;1.09838867188;0.16796875
1487264806613;-22.6953125;68.703125;-11.015625;-0.208740234375;1.09838867188;0.16796875
1487264806823;-22.6953125;68.703125;-11.015625;-0.208740234375;1.09838867188;0.16796875
1487264806963;-22.6953125;68.703125;-11.015625;-0.208740234375;1.09838867188;0.16796875
1487264807103;-30.578125;-24.53125;-0.6796875;0.03564453125;0.954833984375;-0.018310546875
1487264807243;-30.578125;-24.53125;-0.6796875;0.03564453125;0.954833984375;-0.018310546875
1487264807383;-30.578125;-24.53125;-0.6796875;0.03564453125;0.954833984375;-0.018310546875
1487264807523;-30.578125;-24.53125;-0.6796875;0.03564453125;0.954833984375;-0.018310546875
1487264807663;-30.578125;-24.53125;-0.6796875;0.03564453125;0.954833984375;-0.018310546875
1487264807810;-30.578125;-24.53125;-0.6796875;0.03564453125;0.954833984375;-0.018310546875
1487264807943;-30.578125;-24.53125;-0.6796875;0.03564453125;0.954833984375;-0.018310546875
1487264808083;5.1328125;-5.484375;4.8515625;-0.00439453125;1.01416015625;-0.012939453125
1487264808293;5.1328125;-5.484375;4.8515625;-0.00439453125;1.01416015625;-0.012939453125
1487264808433;5.1328125;-5.484375;4.8515625;-0.00439453125;1.01416015625;-0.012939453125
1487264808644;5.1328125;-5.484375;4.8515625;-0.00439453125;1.01416015625;-0.012939453125
1487264808783;5.1328125;-5.484375;4.8515625;-0.00439453125;1.01416015625;-0.012939453125
1487264808993;5.1328125;-5.484375;4.8515625;-0.00439453125;1.01416015625;-0.012939453125
1487264809203;0.4609375;13.0390625;15.828125;0.106201171875;1.03100585938;0.1865234375
1487264809343;0.4609375;13.0390625;15.828125;0.106201171875;1.03100585938;0.1865234375
1487264809483;0.4609375;13.0390625;15.828125;0.106201171875;1.03100585938;0.1865234375
1487264809630;0.4609375;13.0390625;15.828125;0.106201171875;1.03100585938;0.1865234375
1487264809763;0.4609375;13.0390625;15.828125;0.106201171875;1.03100585938;0.1865234375
1487264809903;0.4609375;13.0390625;15.828125;0.106201171875;1.03100585938;0.1865234375
1487264810043;-3.0703125;0.234375;5.7265625;0.086669921875;1.01416015625;0.090576171875
1487264810183;-3.0703125;0.234375;5.7265625;0.086669921875;1.01416015625;0.090576171875
1487264810323;-3.0703125;0.234375;5.7265625;0.086669921875;1.01416015625;0.090576171875
1487264810463;-3.0703125;0.234375;5.7265625;0.086669921875;1.01416015625;0.090576171875
1487264810610;-3.0703125;0.234375;5.7265625;0.086669921875;1.01416015625;0.090576171875
1487264810743;-3.0703125;0.234375;5.7265625;0.086669921875;1.01416015625;0.090576171875
1487264810890;-3.0703125;0.234375;5.7265625;0.086669921875;1.01416015625;0.090576171875
1487264811023;-0.2421875;-28.578125;62.96875;0.478515625;0.629638671875;-0.09130859375
1487264811163;-0.2421875;-28.578125;62.96875;0.478515625;0.629638671875;-0.09130859375
1487264811310;-0.2421875;-28.578125;62.96875;0.478515625;0.629638671875;-0.09130859375
1487264811443;-0.2421875;-28.578125;62.96875;0.478515625;0.629638671875;-0.09130859375
1487264811583;-0.2421875;-28.578125;62.96875;0.478515625;0.629638671875;-0.09130859375
1487264811723;-0.2421875;-28.578125;62.96875;0.478515625;0.629638671875;-0.09130859375
1487264812003;-0.2421875;-28.578125;62.96875;0.478515625;0.629638671875;-0.09130859375
1487264812143;-10.0078125;-14.3828125;30.140625;0.580078125;0.829345703125;0.079345703125
1487264812283;-10.0078125;-14.3828125;30.140625;0.580078125;0.829345703125;0.079345703125
1487264812493;-10.0078125;-14.3828125;30.140625;0.580078125;0.829345703125;0.079345703125
1487264812633;-10.0078125;-14.3828125;30.140625;0.580078125;0.829345703125;0.079345703125
1487264812780;-10.0078125;-14.3828125;30.140625;0.580078125;0.829345703125;0.079345703125
1487264812913;-10.0078125;-14.3828125;30.140625;0.580078125;0.829345703125;0.079345703125
1487264813053;-3.265625;8.1953125;1.6171875;0.52587890625;0.8916015625;0.1513671875
1487264813193;-3.265625;8.1953125;1.6171875;0.52587890625;0.8916015625;0.1513671875
1487264813333;-3.265625;8.1953125;1.6171875;0.52587890625;0.8916015625;0.1513671875
1487264813473;-3.265625;8.1953125;1.6171875;0.52587890625;0.8916015625;0.1513671875
1487264813613;-3.265625;8.1953125;1.6171875;0.52587890625;0.8916015625;0.1513671875
1487264813753;-3.265625;8.1953125;1.6171875;0.52587890625;0.8916015625;0.1513671875
1487264813893;-3.265625;8.1953125;1.6171875;0.52587890625;0.8916015625;0.1513671875
1487264814040;6.2265625;10.0234375;13.0078125;0.3212890625;0.85595703125;0.074951171875
1487264814173;6.2265625;10.0234375;13.0078125;0.3212890625;0.85595703125;0.074951171875
1487264814313;6.2265625;10.0234375;13.0078125;0.3212890625;0.85595703125;0.074951171875
1487264814523;6.2265625;10.0234375;13.0078125;0.3212890625;0.85595703125;0.074951171875
1487264814670;6.2265625;10.0234375;13.0078125;0.3212890625;0.85595703125;0.074951171875
1487264814803;6.2265625;10.0234375;13.0078125;0.3212890625;0.85595703125;0.074951171875
1487264814950;6.2265625;10.0234375;13.0078125;0.3212890625;0.85595703125;0.074951171875
1487264815083;8.0;14.078125;19.1796875;0.258056640625;0.9296875;0.16162109375
1487264815223;8.0;14.078125;19.1796875;0.258056640625;0.9296875;0.16162109375
1487264815370;8.0;14.078125;19.1796875;0.258056640625;0.9296875;0.16162109375
1487264815503;8.0;14.078125;19.1796875;0.258056640625;0.9296875;0.16162109375
1487264815643;8.0;14.078125;19.1796875;0.258056640625;0.9296875;0.16162109375
1487264815783;8.0;14.078125;19.1796875;0.258056640625;0.9296875;0.16162109375
1487264815923;8.0;14.078125;19.1796875;0.258056640625;0.9296875;0.16162109375
1487264816063;54.375;-60.171875;-18.4921875;0.263671875;0.96630859375;0.385986328125
1487264816204;54.375;-60.171875;-18.4921875;0.263671875;0.96630859375;0.385986328125
1487264816343;54.375;-60.171875;-18.4921875;0.263671875;0.96630859375;0.385986328125
1487264816483;54.375;-60.171875;-18.4921875;0.263671875;0.96630859375;0.385986328125
1487264816623;54.375;-60.171875;-18.4921875;0.263671875;0.96630859375;0.385986328125
1487264816763;54.375;-60.171875;-18.4921875;0.263671875;0.96630859375;0.385986328125
1487264816903;54.375;-60.171875;-18.4921875;0.263671875;0.96630859375;0.385986328125
1487264817120;3.2578125;5.140625;13.03125;0.156982421875;0.90576171875;0.364013671875
1487264817253;3.2578125;5.140625;13.03125;0.156982421875;0.90576171875;0.364013671875
1487264817393;3.2578125;5.140625;13.03125;0.156982421875;0.90576171875;0.364013671875
1487264817540;3.2578125;5.140625;13.03125;0.156982421875;0.90576171875;0.364013671875
1487264817673;3.2578125;5.140625;13.03125;0.156982421875;0.90576171875;0.364013671875
1487264817813;3.2578125;5.140625;13.03125;0.156982421875;0.90576171875;0.364013671875
1487264817953;3.2578125;5.140625;13.03125;0.156982421875;0.90576171875;0.364013671875
1487264818093;8.0625;-8.921875;5.75;0.33203125;0.88134765625;0.429443359375
1487264818239;8.0625;-8.921875;5.75;0.33203125;0.88134765625;0.429443359375
1487264818373;8.0625;-8.921875;5.75;0.33203125;0.88134765625;0.429443359375
1487264818513;8.0625;-8.921875;5.75;0.33203125;0.88134765625;0.429443359375
1487264818653;8.0625;-8.921875;5.75;0.33203125;0.88134765625;0.429443359375
1487264818793;8.0625;-8.921875;5.75;0.33203125;0.88134765625;0.429443359375
