sep=;
timestamp;gyro-alpha;gyro-beta;gyro-gamma;accel-x;accel-y;accel-z
1477745181668;-0.10766192525625;0.3016469180584;0.0010704338783398;-0.31304186582565;3.39737200737;8.7358427047729
1477745181686;-0.11299145966768;0.29951509833336;4.5253841562953E-6;-0.40940847992897;3.3985691070557;9.1937341690063
1477745181703;-0.090607389807701;0.2376924008131;0.0010704338783398;-0.43813890218735;3.3393127918243;9.2320413589478
1477745181720;0.025576628744602;-0.069289222359657;-0.0010613831691444;-0.50577509403229;3.3644518852234;9.4828338623047
1477745181738;0.089531138539314;-0.24836182594299;4.5253841562953E-6;-0.35972878336906;3.3877952098846;8.881290435791
1477745181835;-0.0064006219618022;0.01385163795203;-0.0010613831691444;-0.40880993008614;3.3770213127136;9.1524343490601
1477745181852;0.01385163795203;-0.040509689599276;0.0010704338783398;-0.41718962788582;3.3656489849091;9.1308860778809
1477745181869;0.043697074055672;-0.12151873111725;-0.0010613831691444;-0.38007950782776;3.4093430042267;9.0087823867798
1477745181888;0.046894796192646;-0.13111190497875;-0.0010613831691444;-0.34715923666954;3.415328502655;8.8543558120728
1477745181975;-0.0042688050307333;0.012785729020834;0.0010704338783398;-0.39564180374146;3.3824083805084;9.0758199691772
1477745182132;0.010653913021088;-0.030916513875127;4.5253841562953E-6;-0.3447650372982;3.4021604061127;8.8705167770386
1477745182222;0.0053243702277541;-0.015993796288967;0.0010704338783398;-0.35613748431206;3.4033575057983;8.9291744232178
1477745182297;-0.0032028970308602;0.01385163795203;4.5253841562953E-6;-0.33937808871269;3.4057517051697;8.9094228744507
1477745182372;0.0021266450639814;-0.0032028970308602;4.5253841562953E-6;-0.34536358714104;3.3949778079987;8.8992471694946
1477745182448;0.0021266450639814;-0.0053347144275904;4.5253841562953E-6;-0.36930561065674;3.4326865673065;8.8980503082275
1477745182523;-0.0032028970308602;0.0053243702277541;0.0010704338783398;-0.36631283164024;3.3111808300018;8.7454195022583
1477745182598;-0.002136989030987;-5.1720121518883E-6;0.0010704338783398;-0.33698388934135;3.3698387145996;8.862735748291
1477745182672;0.0010607364820316;-0.0010710800997913;0.0010704338783398;-0.35913023352623;3.4278981685638;8.9459342956543
1477745182717;-5.1720121518883E-6;0.0010607364820316;4.5253841562953E-6;-0.35673603415489;3.4021604061127;8.9579048156738
1477745182823;-0.0010710800997913;-5.1720121518883E-6;-0.0010613831691444;-0.34715923666954;3.3961749076843;8.9160070419312
1477745182865;0.0010607364820316;0.0010607364820316;-0.0010613831691444;-0.35134908556938;3.4123358726501;8.9130144119263
1477745182908;-5.1720121518883E-6;-5.1720121518883E-6;4.5253841562953E-6;-0.35972878336906;3.4159271717072;8.9064302444458
1477745182949;-5.1720121518883E-6;0.0021266450639814;4.5253841562953E-6;-0.34835633635521;3.4093430042267;8.9201965332031
1477745182990;-5.1720121518883E-6;-5.1720121518883E-6;-0.0010613831691444;-0.33039981126785;3.3955764770508;8.9279775619507
1477745183036;-5.1720121518883E-6;0.0010607364820316;4.5253841562953E-6;-0.35015198588371;3.4183213710785;8.9022397994995
1477745183079;-0.0010710800997913;-5.1720121518883E-6;4.5253841562953E-6;-0.35374328494072;3.411737203598;8.9237880706787
1477745183120;-0.0010710800997913;0.0010607364820316;4.5253841562953E-6;-0.3411737382412;3.390189409256;8.8992471694946
1477745183166;-0.0010710800997913;-5.1720121518883E-6;4.5253841562953E-6;-0.34057518839836;3.4051532745361;8.9178028106689
1477745183209;0.0010607364820316;-5.1720121518883E-6;-0.0010613831691444;-0.33039981126785;3.4135329723358;8.9249849319458
1477745183250;0.0010607364820316;-0.0010710800997913;4.5253841562953E-6;-0.33877953886986;3.4069488048553;8.90882396698
1477745183290;0.0010607364820316;-5.1720121518883E-6;-0.0010613831691444;-0.3585316836834;3.408145904541;8.9477300643921
1477745183307;0.0010607364820316;-0.0010710800997913;4.5253841562953E-6;-0.34835633635521;3.4063503742218;8.8974514007568
1477745183325;-5.1720121518883E-6;0.0021266450639814;4.5253841562953E-6;-0.34057518839836;3.3919851779938;8.9273796081543
1477745183396;0.0010607364820316;0.0021266450639814;4.5253841562953E-6;-0.33758243918419;3.3931822776794;8.918999671936
1477745183498;-5.1720121518883E-6;-5.1720121518883E-6;4.5253841562953E-6;-0.36391863226891;3.4141314029694;8.9058313369751
1477745183540;-5.1720121518883E-6;0.0010607364820316;4.5253841562953E-6;-0.37349545955658;3.3740286827087;8.8908672332764
1477745183583;-5.1720121518883E-6;-5.1720121518883E-6;4.5253841562953E-6;-0.35194763541222;3.4063503742218;8.9848403930664
1477745183624;-5.1720121518883E-6;0.0010607364820316;0.0010704338783398;-0.3603273332119;3.3776199817657;8.8735094070435
1477745183665;-5.1720121518883E-6;-0.0010710800997913;4.5253841562953E-6;-0.3411737382412;3.4308907985687;8.9399490356445
1477745183711;-5.1720121518883E-6;0.0021266450639814;0.0010704338783398;-0.34356793761253;3.3985691070557;8.937554359436
1477745183752;0.0010607364820316;0.0010607364820316;4.5253841562953E-6;-0.34715923666954;3.3979706764221;8.9160070419312
1477745183795;-0.0010710800997913;-5.1720121518883E-6;-0.0010613831691444;-0.33518821001053;3.3997662067413;8.9184007644653
1477745183836;0.0010607364820316;0.0010607364820316;-0.0010613831691444;-0.34656068682671;3.4003648757935;8.9010429382324
1477745183879;-5.1720121518883E-6;-5.1720121518883E-6;4.5253841562953E-6;-0.35374328494072;3.4039561748505;8.9333648681641
1477745183920;-5.1720121518883E-6;-5.1720121518883E-6;4.5253841562953E-6;-0.36930561065674;3.415328502655;8.9417448043823
1477745183964;0.0021266450639814;0.0021266450639814;0.0010704338783398;-0.40462008118629;3.3411083221436;8.7867202758789
1477745184007;0.0010607364820316;-5.1720121518883E-6;-0.0010613831691444;-0.32860416173935;3.4578256607056;9.0770168304443
1477745184052;-0.0010710800997913;0.0010607364820316;0.0010704338783398;-0.36152443289757;3.3854010105133;8.8280200958252
1477745184092;-5.1720121518883E-6;0.0042584617622197;4.5253841562953E-6;-0.35613748431206;3.457227230072;9.0189571380615
1477745184135;0.0021266450639814;-0.0032028970308602;-0.0010613831691444;-0.3621229827404;3.3686416149139;8.858546257019
1477745184176;-0.0010710800997913;0.0021266450639814;-0.0010613831691444;-0.33698388934135;3.3806126117706;8.8800935745239
1477745184216;0.0010607364820316;-0.0010710800997913;4.5253841562953E-6;-0.33877953886986;3.4021604061127;8.9519195556641
1477745184259;-0.0010710800997913;0.0021266450639814;4.5253841562953E-6;-0.35673603415489;3.3991677761078;8.895655632019
1477745184304;0.0021266450639814;-0.0010710800997913;4.5253841562953E-6;-0.34715923666954;3.400963306427;8.8968534469604
1477745184344;-5.1720121518883E-6;-0.0010710800997913;4.5253841562953E-6;-0.3621229827404;3.3955764770508;8.8836851119995
1477745184386;-0.002136989030987;0.0010607364820316;4.5253841562953E-6;-0.34656068682671;3.4278981685638;8.918999671936
1477745184429;-5.1720121518883E-6;-0.0010710800997913;4.5253841562953E-6;-0.32202011346817;3.4093430042267;8.937554359436
1477745184471;-0.0010710800997913;0.0010607364820316;4.5253841562953E-6;-0.36631283164024;3.411737203598;8.90882396698
1477745184512;0.0010607364820316;-5.1720121518883E-6;0.0010704338783398;-0.31723171472549;3.4105401039124;8.8962545394897
1477745184553;-5.1720121518883E-6;-5.1720121518883E-6;0.0010704338783398;-0.36810851097107;3.4183213710785;8.9279775619507
1477745184594;-5.1720121518883E-6;-0.0010710800997913;4.5253841562953E-6;-0.35194763541222;3.415328502655;8.9225912094116
1477745184638;-5.1720121518883E-6;0.0010607364820316;-0.0010613831691444;-0.36332008242607;3.4129343032837;8.9291744232178
1477745184684;-0.0010710800997913;0.0010607364820316;4.5253841562953E-6;-0.34177228808403;3.4039561748505;8.9261817932129
1477745184727;-0.0010710800997913;-0.002136989030987;4.5253841562953E-6;-0.36571428179741;3.3895909786224;8.9477300643921
1477745184766;-0.0032028970308602;0.0010607364820316;4.5253841562953E-6;-0.32501286268234;3.5302503108978;9.1530323028564
1477745184812;0.0010607364820316;0.0021266450639814;0.0010704338783398;-0.37409400939941;3.4015619754791;8.9309701919556
1477745184857;-0.0010710800997913;-0.0010710800997913;4.5253841562953E-6;-0.34356793761253;3.3824083805084;8.8932619094849
1477745184898;-5.1720121518883E-6;0.0021266450639814;-0.0010613831691444;-0.35673603415489;3.4374749660492;8.9351606369019
1477745184938;0.0010607364820316;-0.0010710800997913;-0.0010613831691444;-0.34775778651237;3.3871967792511;8.8914661407471
1477745184981;-0.0010710800997913;-5.1720121518883E-6;-0.0010613831691444;-0.37349545955658;3.4099416732788;8.9417448043823
1477745185023;-0.0010710800997913;0.0010607364820316;4.5253841562953E-6;-0.34775778651237;3.3979706764221;8.8896703720093
1477745185062;-5.1720121518883E-6;0.0010607364820316;4.5253841562953E-6;-0.35374328494072;3.4177227020264;8.9201965332031
1477745185105;-5.1720121518883E-6;0.0021266450639814;0.0010704338783398;-0.35314473509789;3.4099416732788;8.9285764694214
1477745185146;-0.0010710800997913;0.0010607364820316;4.5253841562953E-6;-0.35553893446922;3.3848025798798;8.9291744232178
1477745185186;-5.1720121518883E-6;0.0021266450639814;4.5253841562953E-6;-0.34536358714104;3.404554605484;8.9513216018677
1477745185230;-0.0010710800997913;-5.1720121518883E-6;4.5253841562953E-6;-0.34835633635521;3.3877952098846;8.937554359436
1477745185270;-0.0010710800997913;0.0010607364820316;4.5253841562953E-6;-0.34955343604088;3.4015619754791;8.9279775619507
1477745185324;-0.0010710800997913;-5.1720121518883E-6;4.5253841562953E-6;-0.35015198588371;3.4033575057983;8.9297733306885
1477745185380;-5.1720121518883E-6;-5.1720121518883E-6;4.5253841562953E-6;-0.33638533949852;3.4003648757935;8.9201965332031
1477745185426;-0.0010710800997913;-0.0010710800997913;-0.0010613831691444;-0.35075053572655;3.3824083805084;8.9058313369751
1477745185465;-5.1720121518883E-6;-5.1720121518883E-6;4.5253841562953E-6;-0.35613748431206;3.4075474739075;8.8926630020142
1477745185506;-5.1720121518883E-6;0.0010607364820316;-0.0010613831691444;-0.35494038462639;3.4063503742218;8.9195976257324
1477745185547;-5.1720121518883E-6;0.0010607364820316;0.0010704338783398;-0.37349545955658;3.3925836086273;8.8962545394897
1477745185586;-0.0010710800997913;0.0010607364820316;4.5253841562953E-6;-0.35434183478355;3.4069488048553;8.9178028106689
1477745185630;-5.1720121518883E-6;-5.1720121518883E-6;4.5253841562953E-6;-0.3621229827404;3.3836054801941;8.9213933944702
1477745185673;0.0010607364820316;-5.1720121518883E-6;4.5253841562953E-6;-0.34177228808403;3.3842039108276;8.9166049957275
1477745185715;0.0010607364820316;-5.1720121518883E-6;0.0010704338783398;-0.35613748431206;3.4069488048553;8.9237880706787
1477745185761;-0.002136989030987;-5.1720121518883E-6;-0.0010613831691444;-0.33698388934135;3.4051532745361;8.9393501281738
1477745185804;-0.0010710800997913;-5.1720121518883E-6;0.0010704338783398;-0.34715923666954;3.4147300720215;8.90882396698
1477745185846;-0.0010710800997913;-5.1720121518883E-6;0.0010704338783398;-0.34775778651237;3.4171242713928;8.9106197357178
1477745185886;-5.1720121518883E-6;0.0010607364820316;4.5253841562953E-6;-0.3603273332119;3.411737203598;8.9405469894409
1477745185932;-5.1720121518883E-6;0.0021266450639814;4.5253841562953E-6;-0.35314473509789;3.415328502655;8.923189163208
1477745185976;-0.0010710800997913;0.0010607364820316;4.5253841562953E-6;-0.34895488619804;3.3967735767365;8.9273796081543
1477745186018;0.0010607364820316;-5.1720121518883E-6;-0.0010613831691444;-0.34057518839836;3.4201169013977;8.9082260131836
1477745186062;-5.1720121518883E-6;-5.1720121518883E-6;4.5253841562953E-6;-0.35793313384056;3.390189409256;8.9285764694214
1477745186108;-0.0010710800997913;0.0010607364820316;-0.0010613831691444;-0.34536358714104;3.4057517051697;8.9315690994263
1477745186154;-5.1720121518883E-6;0.0010607364820316;4.5253841562953E-6;-0.35793313384056;3.3943793773651;8.8950576782227
1477745186198;-0.002136989030987;-0.0010710800997913;4.5253841562953E-6;-0.34356793761253;3.3967735767365;8.904634475708
1477745186238;-0.0010710800997913;0.0010607364820316;0.0010704338783398;-0.35314473509789;3.4051532745361;8.9160070419312
1477745186283;-5.1720121518883E-6;-5.1720121518883E-6;4.5253841562953E-6;-0.33339256048203;3.4105401039124;8.9315690994263
1477745186326;0.0010607364820316;-0.0010710800997913;4.5253841562953E-6;-0.34177228808403;3.4087445735931;8.9118165969849
1477745186371;-0.0010710800997913;0.0010607364820316;4.5253841562953E-6;-0.32561141252518;3.4015619754791;8.9094228744507
1477745186414;-0.0010710800997913;-5.1720121518883E-6;4.5253841562953E-6;-0.33997663855553;3.3997662067413;8.9010429382324
1477745186460;0.0010607364820316;-0.0010710800997913;-0.0010613831691444;-0.35015198588371;3.4105401039124;8.9070281982422
1477745186504;-5.1720121518883E-6;0.0010607364820316;-0.0010613831691444;-0.35494038462639;3.3949778079987;8.9273796081543
1477745186549;-5.1720121518883E-6;-0.0010710800997913;4.5253841562953E-6;-0.34656068682671;3.4051532745361;8.9285764694214
1477745186591;0.0010607364820316;0.0010607364820316;0.0010704338783398;-0.3621229827404;3.408145904541;8.8938608169556
1477745186641;-5.1720121518883E-6;-5.1720121518883E-6;0.0010704338783398;-0.33159691095352;3.4063503742218;8.9273796081543
1477745186684;-5.1720121518883E-6;0.0010607364820316;-0.0010613831691444;-0.34057518839836;3.4063503742218;8.9369564056396
1477745186743;-5.1720121518883E-6;0.0021266450639814;0.0010704338783398;-0.3429693877697;3.418919801712;8.9441385269165
1477745186793;-0.0010710800997913;-5.1720121518883E-6;4.5253841562953E-6;-0.34057518839836;3.4075474739075;8.9207954406738
1477745186834;-5.1720121518883E-6;-5.1720121518883E-6;4.5253841562953E-6;-0.34715923666954;3.4015619754791;8.9070281982422
1477745186878;0.0010607364820316;0.0010607364820316;0.0010704338783398;-0.36511573195457;3.3991677761078;8.9094228744507
1477745186920;-0.0010710800997913;-5.1720121518883E-6;4.5253841562953E-6;-0.35314473509789;3.3854010105133;8.9064302444458
1477745186963;-0.0010710800997913;-0.0010710800997913;4.5253841562953E-6;-0.36810851097107;3.4027590751648;8.9052324295044
1477745187006;0.0010607364820316;0.0010607364820316;0.0010704338783398;-0.32680851221085;3.4051532745361;8.9237880706787
1477745187048;-0.0010710800997913;-5.1720121518883E-6;4.5253841562953E-6;-0.35075053572655;3.3997662067413;8.9201965332031
1477745187090;-5.1720121518883E-6;-5.1720121518883E-6;4.5253841562953E-6;-0.35494038462639;3.4033575057983;8.904634475708
1477745187136;-5.1720121518883E-6;-5.1720121518883E-6;4.5253841562953E-6;-0.34835633635521;3.4033575057983;8.9142112731934
1477745187181;-5.1720121518883E-6;0.0010607364820316;4.5253841562953E-6;-0.32142156362534;3.3955764770508;8.9166049957275
1477745187224;-5.1720121518883E-6;-0.0010710800997913;4.5253841562953E-6;-0.35194763541222;3.3919851779938;8.9297733306885
1477745187265;0.0010607364820316;0.0010607364820316;0.0010704338783398;-0.35434183478355;3.3836054801941;8.9255838394165
1477745187309;0.0010607364820316;-5.1720121518883E-6;4.5253841562953E-6;-0.3447650372982;3.404554605484;8.9195976257324
1477745187352;0.0010607364820316;-0.0010710800997913;-0.0010613831691444;-0.34536358714104;3.4195184707642;8.9028387069702
1477745187393;0.0010607364820316;0.0021266450639814;-0.0010613831691444;-0.40462008118629;3.3153705596924;8.8405895233154
1477745187433;-0.0010710800997913;-0.0010710800997913;-0.0021272911690176;-0.39683890342712;3.2579097747803;8.6239137649536
1477745187476;0.0010607364820316;0.0021266450639814;0.0010704338783398;-0.37828385829926;3.4051532745361;8.904634475708
1477745187518;-5.1720121518883E-6;0.0010607364820316;0.0010704338783398;-0.31783026456833;3.464409828186;9.0889883041382
1477745187561;-5.1720121518883E-6;-5.1720121518883E-6;-0.0010613831691444;-0.36571428179741;3.3644518852234;8.858546257019
1477745187607;-0.0010710800997913;-0.0010710800997913;4.5253841562953E-6;-0.33399111032486;3.4099416732788;8.9154081344604
1477745187651;-0.0010710800997913;-5.1720121518883E-6;0.0010704338783398;-0.32980126142502;3.4015619754791;8.9160070419312
1477745187694;-5.1720121518883E-6;-5.1720121518883E-6;0.0010704338783398;-0.34177228808403;3.4093430042267;8.9076271057129
1477745187738;-0.002136989030987;-5.1720121518883E-6;0.0010704338783398;-0.35553893446922;3.3859996795654;8.9333648681641
1477745187781;-5.1720121518883E-6;0.0010607364820316;0.0010704338783398;-0.35314473509789;3.4159271717072;8.9303722381592
1477745187826;-5.1720121518883E-6;0.0021266450639814;4.5253841562953E-6;-0.35733458399773;3.4087445735931;8.9369564056396
1477745187868;-0.0010710800997913;0.0010607364820316;4.5253841562953E-6;-0.3447650372982;3.3704373836517;8.9034376144409
1477745187910;-0.0010710800997913;0.0031925530638546;4.5253841562953E-6;-0.35673603415489;3.3895909786224;8.9100208282471
1477745187958;-5.1720121518883E-6;0.0010607364820316;-0.0021272911690176;-0.36451718211174;3.3955764770508;8.9213933944702
1477745188000;-0.002136989030987;-5.1720121518883E-6;4.5253841562953E-6;-0.34715923666954;3.411737203598;8.9303722381592
1477745188042;0.0010607364820316;-5.1720121518883E-6;0.0010704338783398;-0.34237083792686;3.4093430042267;8.9854383468628
1477745188085;-0.0010710800997913;-5.1720121518883E-6;4.5253841562953E-6;-0.33758243918419;3.3698387145996;8.8549547195435
1477745188129;0.0010607364820316;-5.1720121518883E-6;4.5253841562953E-6;-0.35134908556938;3.4374749660492;8.9824457168579
1477745188174;-0.0010710800997913;-5.1720121518883E-6;4.5253841562953E-6;-0.34416648745537;3.400963306427;8.9052324295044
1477745188214;-0.0010710800997913;0.0010607364820316;4.5253841562953E-6;-0.36511573195457;3.3979706764221;8.9381532669067
1477745188258;0.0021266450639814;0.0010607364820316;0.0010704338783398;-0.3429693877697;3.3991677761078;8.9100208282471
1477745188300;-5.1720121518883E-6;-5.1720121518883E-6;0.0010704338783398;-0.35553893446922;3.3907880783081;8.8830862045288
1477745188343;-0.0010710800997913;0.0010607364820316;0.0010704338783398;-0.37349545955658;3.4165256023407;8.9255838394165
1477745188388;-5.1720121518883E-6;0.0010607364820316;0.0010704338783398;-0.32800561189651;3.4057517051697;8.9267807006836
1477745188431;-0.0010710800997913;-5.1720121518883E-6;-0.0010613831691444;-0.35374328494072;3.4033575057983;8.9136123657227
1477745188476;-0.002136989030987;-0.0010710800997913;4.5253841562953E-6;-0.3429693877697;3.3889923095703;8.9118165969849
1477745188518;-0.0010710800997913;-5.1720121518883E-6;4.5253841562953E-6;-0.34596213698387;3.3967735767365;8.918999671936
1477745188563;0.0010607364820316;-5.1720121518883E-6;0.0010704338783398;-0.34715923666954;3.4123358726501;8.9070281982422
1477745188609;0.0010607364820316;0.0010607364820316;-0.0010613831691444;-0.34775778651237;3.4374749660492;9.0010013580322
1477745188654;-0.002136989030987;-5.1720121518883E-6;4.5253841562953E-6;-0.34895488619804;3.4087445735931;8.9626941680908
1477745188698;0.0010607364820316;-0.0032028970308602;4.5253841562953E-6;-0.33758243918419;3.4027590751648;8.9010429382324
1477745188741;-0.002136989030987;0.0010607364820316;4.5253841562953E-6;-0.33339256048203;3.4159271717072;8.9297733306885
1477745188786;-5.1720121518883E-6;-0.0010710800997913;0.0010704338783398;-0.35075053572655;3.4177227020264;8.8848819732666
1477745188832;-0.0032028970308602;0.0010607364820316;4.5253841562953E-6;-0.35673603415489;3.390189409256;8.9172039031982
1477745188878;-0.002136989030987;-0.0010710800997913;0.0010704338783398;-0.34536358714104;3.4255039691925;8.9644889831543
1477745188920;0.0010607364820316;-0.002136989030987;0.0010704338783398;-0.36691138148308;3.3979706764221;8.904634475708
1477745188961;0.0010607364820316;-5.1720121518883E-6;-0.0010613831691444;-0.3447650372982;3.383006811142;8.9201965332031
1477745189007;-0.0010710800997913;0.0010607364820316;4.5253841562953E-6;-0.3447650372982;3.4105401039124;8.9082260131836
1477745189050;-5.1720121518883E-6;0.0010607364820316;0.0010704338783398;-0.34955343604088;3.408145904541;8.9195976257324
1477745189096;-5.1720121518883E-6;0.0010607364820316;0.0010704338783398;-0.34775778651237;3.4051532745361;8.9207954406738
1477745189139;-0.002136989030987;0.0010607364820316;4.5253841562953E-6;-0.36750993132591;3.4015619754791;8.9124155044556
1477745189186;-0.0010710800997913;0.0010607364820316;-0.0010613831691444;-0.34656068682671;3.3961749076843;8.9148092269897
1477745189231;-5.1720121518883E-6;-5.1720121518883E-6;0.0010704338783398;-0.35494038462639;3.3848025798798;8.9160070419312
1477745189275;-0.0010710800997913;0.0010607364820316;4.5253841562953E-6;-0.35913023352623;3.3925836086273;8.9267807006836
1477745189316;-0.0010710800997913;-5.1720121518883E-6;-0.0010613831691444;-0.35733458399773;3.4105401039124;8.9219923019409
1477745189359;-0.0010710800997913;0.0010607364820316;-0.0010613831691444;-0.34536358714104;3.408145904541;8.9118165969849
1477745189401;-5.1720121518883E-6;-5.1720121518883E-6;-0.0010613831691444;-0.34955343604088;3.411737203598;8.9213933944702
1477745189444;-5.1720121518883E-6;-0.002136989030987;-0.0010613831691444;-0.35613748431206;3.3925836086273;8.9267807006836
1477745189490;-0.002136989030987;-5.1720121518883E-6;4.5253841562953E-6;-0.35134908556938;3.4063503742218;8.89026927948
1477745189535;-0.0010710800997913;0.0010607364820316;4.5253841562953E-6;-0.35553893446922;3.39737200737;8.9100208282471
1477745189578;-0.0010710800997913;-5.1720121518883E-6;0.0010704338783398;-0.35374328494072;3.4063503742218;8.9004440307617
1477745189622;-0.0010710800997913;-5.1720121518883E-6;4.5253841562953E-6;-0.35314473509789;3.3943793773651;8.9195976257324
1477745189666;-0.0010710800997913;-0.0010710800997913;4.5253841562953E-6;-0.33877953886986;3.4129343032837;8.9483280181885
1477745189710;-5.1720121518883E-6;0.0010607364820316;4.5253841562953E-6;-0.34356793761253;3.4141314029694;8.9034376144409
1477745189755;-0.0010710800997913;-5.1720121518883E-6;4.5253841562953E-6;-0.34835633635521;3.4033575057983;8.9076271057129
1477745189800;-5.1720121518883E-6;0.0010607364820316;0.0010704338783398;-0.3603273332119;3.4087445735931;8.9076271057129
1477745189841;-5.1720121518883E-6;0.0010607364820316;0.0010704338783398;-0.35553893446922;3.3883938789368;8.8974514007568
1477745189885;-5.1720121518883E-6;0.0010607364820316;4.5253841562953E-6;-0.34596213698387;3.4231097698212;8.9219923019409
1477745189930;0.0010607364820316;-5.1720121518883E-6;0.0010704338783398;-0.34835633635521;3.411737203598;8.918999671936
1477745189974;-0.0010710800997913;-5.1720121518883E-6;-0.0010613831691444;-0.33638533949852;3.4057517051697;8.9136123657227
1477745190019;-5.1720121518883E-6;0.0010607364820316;4.5253841562953E-6;-0.35075053572655;3.4015619754791;8.9243860244751
1477745190061;-5.1720121518883E-6;-5.1720121518883E-6;4.5253841562953E-6;-0.34237083792686;3.3836054801941;8.90882396698
1477745190107;-0.002136989030987;0.0010607364820316;4.5253841562953E-6;-0.34536358714104;3.4141314029694;8.9273796081543
1477745190154;-5.1720121518883E-6;0.0010607364820316;0.0010704338783398;-0.33698388934135;3.3991677761078;8.9297733306885
1477745190198;-0.0010710800997913;-0.0010710800997913;-0.0010613831691444;-0.35374328494072;3.400963306427;8.9243860244751
1477745190244;0.0010607364820316;-0.0010710800997913;0.0010704338783398;-0.34237083792686;3.3961749076843;8.9184007644653
1477745190286;-0.0010710800997913;-5.1720121518883E-6;4.5253841562953E-6;-0.35194763541222;3.393780708313;8.9309701919556
1477745190331;-0.0010710800997913;-5.1720121518883E-6;-0.0010613831691444;-0.35494038462639;3.39737200737;8.9154081344604
1477745190373;-5.1720121518883E-6;-5.1720121518883E-6;-0.0010613831691444;-0.33279401063919;3.3961749076843;8.9297733306885
1477745190418;-0.0010710800997913;-5.1720121518883E-6;-0.0010613831691444;-0.34416648745537;3.4027590751648;8.9184007644653
1477745190462;-5.1720121518883E-6;-5.1720121518883E-6;0.0010704338783398;-0.33758243918419;3.3985691070557;8.9124155044556
1477745190508;-5.1720121518883E-6;0.0010607364820316;-0.0010613831691444;-0.3687070608139;3.3925836086273;8.9393501281738
1477745190554;-5.1720121518883E-6;-0.0010710800997913;-0.0021272911690176;-0.32860416173935;3.4135329723358;8.9064302444458
1477745190599;-5.1720121518883E-6;-0.0010710800997913;-0.0021272911690176;-0.35733458399773;3.415328502655;8.9195976257324
1477745190642;-5.1720121518883E-6;-5.1720121518883E-6;4.5253841562953E-6;-0.35194763541222;3.4015619754791;8.9130144119263
1477745190685;-5.1720121518883E-6;-5.1720121518883E-6;-0.0010613831691444;-0.33638533949852;3.4039561748505;8.9184007644653
1477745190730;0.0010607364820316;-5.1720121518883E-6;-0.0010613831691444;-0.33877953886986;3.4075474739075;8.9219923019409
1477745190778;-0.0010710800997913;-5.1720121518883E-6;0.0010704338783398;-0.3411737382412;3.411737203598;8.9118165969849
1477745190819;-5.1720121518883E-6;0.0010607364820316;4.5253841562953E-6;-0.36332008242607;3.4183213710785;8.9207954406738
1477745190866;-5.1720121518883E-6;0.0010607364820316;4.5253841562953E-6;-0.33339256048203;3.3991677761078;8.9184007644653
1477745190910;-5.1720121518883E-6;0.0010607364820316;-0.0021272911690176;-0.35913023352623;3.3961749076843;8.9363574981689
1477745190957;-5.1720121518883E-6;0.0010607364820316;0.0010704338783398;-0.35075053572655;3.4237082004547;8.9124155044556
1477745190999;-0.0010710800997913;-5.1720121518883E-6;4.5253841562953E-6;-0.35015198588371;3.3883938789368;8.9130144119263
1477745191044;-5.1720121518883E-6;-5.1720121518883E-6;4.5253841562953E-6;-0.35673603415489;3.4033575057983;8.9243860244751
1477745191087;-5.1720121518883E-6;0.0010607364820316;4.5253841562953E-6;-0.35733458399773;3.4141314029694;8.9022397994995
1477745191136;-0.0010710800997913;0.0010607364820316;0.0010704338783398;-0.35015198588371;3.4255039691925;8.9064302444458
1477745191181;0.0010607364820316;0.0010607364820316;4.5253841562953E-6;-0.34895488619804;3.4057517051697;8.918999671936
1477745191224;-0.002136989030987;-5.1720121518883E-6;4.5253841562953E-6;-0.34057518839836;3.400963306427;8.946533203125
1477745191264;0.0010607364820316;-5.1720121518883E-6;4.5253841562953E-6;-0.36272153258324;3.4003648757935;8.9417448043823
1477745191305;-5.1720121518883E-6;0.0010607364820316;4.5253841562953E-6;-0.33818098902702;3.3997662067413;8.9112186431885
1477745191351;-0.0010710800997913;0.0010607364820316;4.5253841562953E-6;-0.35913023352623;3.3979706764221;8.9160070419312
1477745191393;0.0010607364820316;-5.1720121518883E-6;4.5253841562953E-6;-0.34416648745537;3.4099416732788;8.9100208282471
1477745191439;-5.1720121518883E-6;-5.1720121518883E-6;-0.0010613831691444;-0.34237083792686;3.4075474739075;8.904634475708
1477745191482;-5.1720121518883E-6;-0.0010710800997913;0.0010704338783398;-0.35673603415489;3.4099416732788;8.9148092269897
1477745191527;-0.0010710800997913;0.0010607364820316;0.0010704338783398;-0.35733458399773;3.4207155704498;8.9291744232178
1477745191570;0.0010607364820316;-5.1720121518883E-6;0.0010704338783398;-0.35314473509789;3.4195184707642;8.9201965332031
1477745191614;0.0010607364820316;-0.0010710800997913;4.5253841562953E-6;-0.35075053572655;3.4165256023407;8.9309701919556
1477745191656;-0.0010710800997913;-5.1720121518883E-6;4.5253841562953E-6;-0.35553893446922;3.3967735767365;8.9070281982422
1477745191702;-0.0010710800997913;0.0010607364820316;0.0010704338783398;-0.34177228808403;3.3949778079987;8.9064302444458
1477745191745;0.0010607364820316;0.0010607364820316;-0.0010613831691444;-0.35913023352623;3.3770213127136;8.9417448043823
1477745191788;-0.0010710800997913;0.0010607364820316;0.0010704338783398;-0.33339256048203;3.3979706764221;8.9279775619507
1477745191833;-5.1720121518883E-6;0.0010607364820316;0.0010704338783398;-0.3603273332119;3.3997662067413;8.9136123657227
1477745191877;-5.1720121518883E-6;-5.1720121518883E-6;4.5253841562953E-6;-0.34775778651237;3.4051532745361;8.9148092269897
1477745191919;-0.0010710800997913;-5.1720121518883E-6;4.5253841562953E-6;-0.35434183478355;3.3967735767365;8.9309701919556
1477745191965;-5.1720121518883E-6;0.0010607364820316;4.5253841562953E-6;-0.37110126018524;3.4003648757935;8.9106197357178
1477745192013;-5.1720121518883E-6;0.0010607364820316;-0.0010613831691444;-0.3447650372982;3.4123358726501;8.9184007644653
1477745192055;-0.0010710800997913;-5.1720121518883E-6;-0.0010613831691444;-0.36332008242607;3.4123358726501;8.9070281982422
1477745192102;-0.0010710800997913;0.0010607364820316;4.5253841562953E-6;-0.34775778651237;3.4087445735931;8.9309701919556
1477745192144;-5.1720121518883E-6;0.0021266450639814;4.5253841562953E-6;-0.32740706205368;3.4171242713928;8.9327659606934
1477745192189;0.0010607364820316;0.0021266450639814;-0.0010613831691444;-0.34177228808403;3.4027590751648;8.9273796081543
1477745192235;-5.1720121518883E-6;0.0010607364820316;-0.0010613831691444;-0.3447650372982;3.3931822776794;8.9094228744507
1477745192282;-5.1720121518883E-6;-0.0010710800997913;4.5253841562953E-6;-0.34356793761253;3.4015619754791;8.9303722381592
1477745192326;-0.0010710800997913;0.0021266450639814;-0.0010613831691444;-0.34356793761253;3.4075474739075;8.90882396698
1477745192374;-0.0010710800997913;0.0010607364820316;4.5253841562953E-6;-0.34237083792686;3.4243068695068;8.9495258331299
1477745192420;0.0021266450639814;-0.0010710800997913;4.5253841562953E-6;-0.35075053572655;3.408145904541;8.9112186431885
1477745192465;-0.0010710800997913;0.0010607364820316;0.0010704338783398;-0.33937808871269;3.4063503742218;8.937554359436
1477745192508;-0.0010710800997913;-5.1720121518883E-6;4.5253841562953E-6;-0.34656068682671;3.4033575057983;8.9207954406738
1477745192553;-5.1720121518883E-6;0.0010607364820316;4.5253841562953E-6;-0.37050271034241;3.4147300720215;8.9207954406738
1477745192597;0.0010607364820316;-5.1720121518883E-6;0.0010704338783398;-0.34835633635521;3.411737203598;8.9237880706787
1477745192642;0.0010607364820316;-5.1720121518883E-6;0.0010704338783398;-0.35613748431206;3.3967735767365;8.9166049957275
1477745192686;-0.0010710800997913;-5.1720121518883E-6;0.0010704338783398;-0.33219546079636;3.4003648757935;8.9004440307617
1477745192732;-5.1720121518883E-6;-5.1720121518883E-6;0.0010704338783398;-0.3411737382412;3.4063503742218;8.932168006897
1477745192776;-5.1720121518883E-6;0.0021266450639814;0.0010704338783398;-0.34416648745537;3.4213140010834;8.9327659606934
1477745192822;-5.1720121518883E-6;-0.0010710800997913;4.5253841562953E-6;-0.34775778651237;3.4147300720215;8.918999671936
1477745192865;-0.0010710800997913;0.0010607364820316;-0.0010613831691444;-0.36092588305473;3.3877952098846;8.9243860244751
1477745192912;-0.0010710800997913;-5.1720121518883E-6;0.0010704338783398;-0.33578675985336;3.4219126701355;8.9255838394165
1477745192957;0.0010607364820316;-5.1720121518883E-6;0.0010704338783398;-0.33997663855553;3.408145904541;8.9285764694214
1477745192999;-0.0010710800997913;-5.1720121518883E-6;4.5253841562953E-6;-0.35134908556938;3.3979706764221;8.9213933944702
1477745193045;-5.1720121518883E-6;-5.1720121518883E-6;4.5253841562953E-6;-0.34656068682671;3.4051532745361;8.9076271057129
1477745193090;-5.1720121518883E-6;-5.1720121518883E-6;0.0010704338783398;-0.35972878336906;3.3943793773651;8.9070281982422
1477745193135;-5.1720121518883E-6;0.0010607364820316;-0.0010613831691444;-0.35434183478355;3.3985691070557;8.9094228744507
1477745193181;0.0010607364820316;-5.1720121518883E-6;4.5253841562953E-6;-0.34955343604088;3.3967735767365;8.9351606369019
1477745193229;-5.1720121518883E-6;-5.1720121518883E-6;-0.0010613831691444;-0.35134908556938;3.4201169013977;8.9154081344604
1477745193274;-5.1720121518883E-6;-5.1720121518883E-6;0.0010704338783398;-0.34955343604088;3.4021604061127;8.9219923019409
1477745193317;-0.0010710800997913;-5.1720121518883E-6;4.5253841562953E-6;-0.35733458399773;3.4129343032837;8.9309701919556
1477745193362;-5.1720121518883E-6;-5.1720121518883E-6;4.5253841562953E-6;-0.34955343604088;3.4141314029694;8.9345617294312
1477745193406;-5.1720121518883E-6;0.0010607364820316;0.0010704338783398;-0.34955343604088;3.4093430042267;8.9297733306885
1477745193452;-0.0010710800997913;-5.1720121518883E-6;0.0010704338783398;-0.34237083792686;3.3985691070557;8.9363574981689
1477745193493;-0.0010710800997913;0.0010607364820316;4.5253841562953E-6;-0.35374328494072;3.3859996795654;8.9178028106689
1477745193539;-5.1720121518883E-6;0.0010607364820316;4.5253841562953E-6;-0.34177228808403;3.4093430042267;8.9160070419312
1477745193586;-0.0010710800997913;0.0010607364820316;0.0010704338783398;-0.36691138148308;3.415328502655;8.9195976257324
1477745193632;-5.1720121518883E-6;-5.1720121518883E-6;-0.0010613831691444;-0.35254618525505;3.4207155704498;8.9213933944702
1477745193676;-5.1720121518883E-6;0.0010607364820316;4.5253841562953E-6;-0.35134908556938;3.386598110199;8.9219923019409
1477745193719;-5.1720121518883E-6;0.0010607364820316;4.5253841562953E-6;-0.35075053572655;3.4201169013977;8.9423427581787
1477745193765;0.0010607364820316;-5.1720121518883E-6;4.5253841562953E-6;-0.35254618525505;3.3967735767365;8.8896703720093
1477745193810;0.0010607364820316;-5.1720121518883E-6;0.0010704338783398;-0.3411737382412;3.4141314029694;8.90882396698
1477745193856;-0.0010710800997913;-5.1720121518883E-6;4.5253841562953E-6;-0.35733458399773;3.4021604061127;8.9393501281738
1477745193900;-0.0010710800997913;0.0010607364820316;-0.0010613831691444;-0.34177228808403;3.3889923095703;8.8950576782227
1477745193943;-5.1720121518883E-6;0.0010607364820316;0.0010704338783398;-0.33937808871269;3.3985691070557;8.9106197357178
1477745193991;0.0010607364820316;-5.1720121518883E-6;4.5253841562953E-6;-0.3411737382412;3.4147300720215;8.9016418457031
1477745194038;-0.0010710800997913;-0.0010710800997913;4.5253841562953E-6;-0.35673603415489;3.3955764770508;8.9345617294312
1477745194086;-5.1720121518883E-6;0.0010607364820316;4.5253841562953E-6;-0.35673603415489;3.4057517051697;8.9243860244751
1477745194131;-5.1720121518883E-6;-5.1720121518883E-6;0.0010704338783398;-0.35733458399773;3.418919801712;8.9172039031982
1477745194177;-0.0010710800997913;-5.1720121518883E-6;4.5253841562953E-6;-0.34237083792686;3.4201169013977;8.9082260131836
1477745194220;-5.1720121518883E-6;-0.0010710800997913;-0.0010613831691444;-0.34536358714104;3.4003648757935;8.9195976257324
1477745194263;-5.1720121518883E-6;-0.002136989030987;0.0010704338783398;-0.37289690971375;3.418919801712;8.9112186431885
1477745194308;-5.1720121518883E-6;-0.0010710800997913;-0.0010613831691444;-0.35015198588371;3.4141314029694;8.9022397994995
1477745194354;-5.1720121518883E-6;-5.1720121518883E-6;4.5253841562953E-6;-0.33997663855553;3.4344820976257;8.9130144119263
1477745194400;-5.1720121518883E-6;-5.1720121518883E-6;4.5253841562953E-6;-0.33099836111069;3.3979706764221;8.8872766494751
1477745194442;-0.0010710800997913;0.0010607364820316;4.5253841562953E-6;-0.35793313384056;3.4219126701355;8.918999671936
1477745194487;-0.0010710800997913;-5.1720121518883E-6;0.0010704338783398;-0.35075053572655;3.3788170814514;8.904634475708
1477745194532;-5.1720121518883E-6;0.0010607364820316;4.5253841562953E-6;-0.35015198588371;3.3919851779938;8.9160070419312
1477745194576;0.0010607364820316;-5.1720121518883E-6;0.0010704338783398;-0.35434183478355;3.4093430042267;8.9172039031982
1477745194622;-5.1720121518883E-6;0.0010607364820316;4.5253841562953E-6;-0.35673603415489;3.4213140010834;8.9249849319458
1477745194667;-0.0010710800997913;0.0010607364820316;-0.0010613831691444;-0.37469255924225;3.3991677761078;8.9136123657227
1477745194715;-5.1720121518883E-6;-5.1720121518883E-6;4.5253841562953E-6;-0.33458966016769;3.3913865089417;8.90882396698
1477745194763;-5.1720121518883E-6;-5.1720121518883E-6;4.5253841562953E-6;-0.33578675985336;3.400963306427;8.9207954406738
1477745194807;-5.1720121518883E-6;-0.0010710800997913;4.5253841562953E-6;-0.3429693877697;3.4099416732788;8.9130144119263
1477745194852;0.0010607364820316;-0.0010710800997913;4.5253841562953E-6;-0.35494038462639;3.4069488048553;8.8878746032715
1477745194895;0.0010607364820316;-0.0010710800997913;4.5253841562953E-6;-0.34596213698387;3.4171242713928;8.90882396698
1477745194940;0.0021266450639814;-5.1720121518883E-6;4.5253841562953E-6;-0.35673603415489;3.415328502655;8.9064302444458
1477745194987;-0.0010710800997913;-5.1720121518883E-6;4.5253841562953E-6;-0.35254618525505;3.4231097698212;8.9016418457031
1477745195030;-0.0010710800997913;0.0010607364820316;4.5253841562953E-6;-0.3621229827404;3.4003648757935;8.8794956207275
1477745195076;-5.1720121518883E-6;-0.0010710800997913;4.5253841562953E-6;-0.34656068682671;3.4063503742218;8.9297733306885
1477745195121;-5.1720121518883E-6;-5.1720121518883E-6;4.5253841562953E-6;-0.34775778651237;3.411737203598;8.8980503082275
1477745195166;-5.1720121518883E-6;0.0010607364820316;4.5253841562953E-6;-0.34237083792686;3.3967735767365;8.937554359436
1477745195209;-5.1720121518883E-6;-0.0010710800997913;4.5253841562953E-6;-0.3621229827404;3.4015619754791;8.9303722381592
1477745195256;-0.0010710800997913;-5.1720121518883E-6;-0.0010613831691444;-0.3447650372982;3.4219126701355;8.9237880706787
1477745195301;-0.0010710800997913;-5.1720121518883E-6;0.0010704338783398;-0.34416648745537;3.3949778079987;8.9219923019409
1477745195343;-5.1720121518883E-6;-0.0010710800997913;4.5253841562953E-6;-0.35194763541222;3.4111387729645;8.9178028106689
1477745195387;-5.1720121518883E-6;-5.1720121518883E-6;-0.0010613831691444;-0.36750993132591;3.4039561748505;8.9333648681641
1477745195433;-5.1720121518883E-6;0.0021266450639814;4.5253841562953E-6;-0.37110126018524;3.4015619754791;8.9255838394165
1477745195481;-0.0010710800997913;-5.1720121518883E-6;0.0010704338783398;-0.35075053572655;3.426102399826;8.8986492156982
1477745195526;0.0010607364820316;0.0010607364820316;4.5253841562953E-6;-0.35134908556938;3.3919851779938;8.9297733306885
1477745195571;-5.1720121518883E-6;0.0010607364820316;4.5253841562953E-6;-0.33937808871269;3.39737200737;8.9118165969849
1477745195614;-0.002136989030987;-5.1720121518883E-6;4.5253841562953E-6;-0.34536358714104;3.4135329723358;8.9094228744507
1477745195659;-5.1720121518883E-6;-5.1720121518883E-6;4.5253841562953E-6;-0.3687070608139;3.4051532745361;8.932168006897
1477745195705;0.0010607364820316;-0.0010710800997913;-0.0010613831691444;-0.36272153258324;3.4105401039124;8.918999671936
1477745195750;-5.1720121518883E-6;0.0010607364820316;4.5253841562953E-6;-0.3603273332119;3.4063503742218;8.9303722381592
1477745195793;-0.0010710800997913;-5.1720121518883E-6;4.5253841562953E-6;-0.33818098902702;3.4075474739075;8.9022397994995
1477745195837;-0.0010710800997913;-5.1720121518883E-6;4.5253841562953E-6;-0.34596213698387;3.4165256023407;8.9178028106689
1477745195885;-0.0010710800997913;-5.1720121518883E-6;4.5253841562953E-6;-0.34715923666954;3.418919801712;8.9261817932129
1477745195932;-5.1720121518883E-6;-0.0010710800997913;0.0010704338783398;-0.35194763541222;3.408145904541;8.9076271057129
1477745195978;-0.0010710800997913;-5.1720121518883E-6;-0.0010613831691444;-0.36631283164024;3.4243068695068;8.918999671936
1477745196022;-5.1720121518883E-6;-5.1720121518883E-6;4.5253841562953E-6;-0.35134908556938;3.3871967792511;8.950722694397
1477745196070;-0.0010710800997913;-5.1720121518883E-6;4.5253841562953E-6;-0.3429693877697;3.3907880783081;8.8860788345337
1477745196114;0.0021266450639814;0.0010607364820316;4.5253841562953E-6;-0.37349545955658;3.3991677761078;8.9279775619507
1477745196160;-5.1720121518883E-6;-0.0010710800997913;0.0010704338783398;-0.35613748431206;3.4093430042267;8.8824882507324
1477745196205;-5.1720121518883E-6;-5.1720121518883E-6;4.5253841562953E-6;-0.33099836111069;3.4105401039124;8.9327659606934
1477745196252;-0.0010710800997913;-5.1720121518883E-6;-0.0010613831691444;-0.35553893446922;3.400963306427;8.904634475708
1477745196294;-5.1720121518883E-6;-0.0010710800997913;4.5253841562953E-6;-0.35494038462639;3.4195184707642;8.9435396194458
1477745196339;-5.1720121518883E-6;-5.1720121518883E-6;0.0010704338783398;-0.34356793761253;3.4165256023407;8.9273796081543
1477745196386;-0.0010710800997913;-5.1720121518883E-6;0.0010704338783398;-0.35733458399773;3.4183213710785;8.9064302444458
1477745196431;-0.0010710800997913;-5.1720121518883E-6;0.0010704338783398;-0.35194763541222;3.4057517051697;8.9225912094116
1477745196475;-5.1720121518883E-6;0.0010607364820316;0.0010704338783398;-0.35972878336906;3.411737203598;8.9142112731934
1477745196519;0.0010607364820316;-0.0010710800997913;4.5253841562953E-6;-0.33458966016769;3.3943793773651;8.9297733306885
1477745196563;-0.002136989030987;-5.1720121518883E-6;4.5253841562953E-6;-0.35314473509789;3.4159271717072;8.923189163208
1477745196610;0.0010607364820316;-5.1720121518883E-6;4.5253841562953E-6;-0.3585316836834;3.4063503742218;8.9213933944702
1477745196657;-0.002136989030987;-0.0010710800997913;4.5253841562953E-6;-0.37229835987091;3.400963306427;8.904634475708
1477745196702;0.0010607364820316;-5.1720121518883E-6;-0.0010613831691444;-0.34895488619804;3.4165256023407;8.9327659606934
1477745196748;0.0010607364820316;-5.1720121518883E-6;0.0010704338783398;-0.3429693877697;3.4051532745361;8.9225912094116
1477745196794;-5.1720121518883E-6;0.0010607364820316;-0.0010613831691444;-0.37229835987091;3.411737203598;8.9076271057129
1477745196843;-0.0010710800997913;-5.1720121518883E-6;0.0010704338783398;-0.34656068682671;3.39737200737;8.9094228744507
1477745196889;-5.1720121518883E-6;-5.1720121518883E-6;4.5253841562953E-6;-0.34775778651237;3.411737203598;8.9285764694214
1477745196936;-5.1720121518883E-6;-5.1720121518883E-6;4.5253841562953E-6;-0.36272153258324;3.4057517051697;8.9255838394165
1477745196982;-5.1720121518883E-6;-5.1720121518883E-6;0.0010704338783398;-0.35254618525505;3.39737200737;8.9411458969116
1477745197028;-5.1720121518883E-6;-5.1720121518883E-6;0.0010704338783398;-0.34656068682671;3.418919801712;8.9333648681641
1477745197073;0.0010607364820316;0.0010607364820316;4.5253841562953E-6;-0.35972878336906;3.3997662067413;8.9160070419312
1477745197119;-5.1720121518883E-6;-5.1720121518883E-6;4.5253841562953E-6;-0.37529110908508;3.4003648757935;8.9339628219604
1477745197165;-5.1720121518883E-6;0.0010607364820316;-0.0010613831691444;-0.34895488619804;3.400963306427;8.9076271057129
1477745197211;-5.1720121518883E-6;-5.1720121518883E-6;0.0010704338783398;-0.35733458399773;3.4111387729645;8.8962545394897
1477745197261;-5.1720121518883E-6;-5.1720121518883E-6;4.5253841562953E-6;-0.35015198588371;3.4165256023407;8.9249849319458
1477745197306;-0.002136989030987;-5.1720121518883E-6;4.5253841562953E-6;-0.35134908556938;3.4183213710785;8.9082260131836
1477745197352;0.0010607364820316;0.0010607364820316;-0.0010613831691444;-0.35434183478355;3.4111387729645;8.9351606369019
1477745197396;-5.1720121518883E-6;0.0010607364820316;-0.0010613831691444;-0.36332008242607;3.4135329723358;8.9363574981689
1477745197443;0.0010607364820316;0.0010607364820316;-0.0010613831691444;-0.36750993132591;3.4278981685638;8.8992471694946
1477745197487;-5.1720121518883E-6;-5.1720121518883E-6;-0.0010613831691444;-0.34356793761253;3.4021604061127;8.923189163208
1477745197534;-0.0010710800997913;-5.1720121518883E-6;0.0010704338783398;-0.32860416173935;3.4003648757935;8.9010429382324
1477745197577;-5.1720121518883E-6;0.0010607364820316;0.0010704338783398;-0.36092588305473;3.4057517051697;8.9327659606934
1477745197622;-5.1720121518883E-6;-5.1720121518883E-6;0.0010704338783398;-0.36571428179741;3.4171242713928;8.9142112731934
1477745197673;-5.1720121518883E-6;-0.0010710800997913;-0.0010613831691444;-0.34536358714104;3.4093430042267;8.9291744232178
1477745197721;-0.0010710800997913;-5.1720121518883E-6;-0.0010613831691444;-0.33818098902702;3.4075474739075;8.9255838394165
1477745197765;-5.1720121518883E-6;-5.1720121518883E-6;0.0010704338783398;-0.34775778651237;3.4111387729645;8.9064302444458
1477745197813;-5.1720121518883E-6;-5.1720121518883E-6;4.5253841562953E-6;-0.34835633635521;3.4231097698212;8.9118165969849
1477745197859;-5.1720121518883E-6;-5.1720121518883E-6;4.5253841562953E-6;-0.36332008242607;3.4075474739075;8.9297733306885
1477745197908;-0.0010710800997913;-5.1720121518883E-6;4.5253841562953E-6;-0.35015198588371;3.4255039691925;8.9160070419312
1477745197957;-0.0010710800997913;-0.0010710800997913;0.0010704338783398;-0.35015198588371;3.415328502655;8.9225912094116
1477745198006;-0.0010710800997913;-0.0010710800997913;-0.0010613831691444;-0.34356793761253;3.411737203598;8.9154081344604
1477745198053;-0.0010710800997913;-5.1720121518883E-6;4.5253841562953E-6;-0.31783026456833;3.4147300720215;8.9303722381592
1477745198097;-0.0010710800997913;-5.1720121518883E-6;4.5253841562953E-6;-0.35015198588371;3.3859996795654;8.9333648681641
1477745198143;-5.1720121518883E-6;-0.0010710800997913;4.5253841562953E-6;-0.34237083792686;3.4063503742218;8.9291744232178
1477745198191;-5.1720121518883E-6;-0.0010710800997913;4.5253841562953E-6;-0.35374328494072;3.404554605484;8.894458770752
1477745198237;-0.0010710800997913;0.0010607364820316;-0.0010613831691444;-0.34955343604088;3.383006811142;8.9435396194458
1477745198285;-0.0010710800997913;-5.1720121518883E-6;-0.0010613831691444;-0.35673603415489;3.4111387729645;8.9028387069702
1477745198328;-5.1720121518883E-6;-0.0010710800997913;4.5253841562953E-6;-0.3585316836834;3.4105401039124;8.9201965332031
1477745198373;-5.1720121518883E-6;0.0010607364820316;-0.0010613831691444;-0.34715923666954;3.3979706764221;8.9142112731934
1477745198418;0.0010607364820316;-0.0010710800997913;-0.0010613831691444;-0.33758243918419;3.4039561748505;8.9094228744507
1477745198465;-5.1720121518883E-6;0.0010607364820316;4.5253841562953E-6;-0.36152443289757;3.4177227020264;8.9237880706787
1477745198510;-5.1720121518883E-6;-5.1720121518883E-6;0.0010704338783398;-0.36152443289757;3.4063503742218;8.950722694397
1477745198558;-5.1720121518883E-6;-5.1720121518883E-6;4.5253841562953E-6;-0.36391863226891;3.3943793773651;8.9327659606934
1477745198604;-0.0010710800997913;0.0010607364820316;-0.0010613831691444;-0.34895488619804;3.4105401039124;8.9243860244751
1477745198648;-5.1720121518883E-6;0.0010607364820316;4.5253841562953E-6;-0.3585316836834;3.4147300720215;8.9124155044556
1477745198697;-0.0010710800997913;-5.1720121518883E-6;0.0010704338783398;-0.35733458399773;3.4099416732788;8.9297733306885
1477745198743;-5.1720121518883E-6;-0.002136989030987;0.0021363419946283;-0.3429693877697;3.4129343032837;8.9082260131836
1477745198790;-5.1720121518883E-6;-0.0010710800997913;-0.0010613831691444;-0.33997663855553;3.39737200737;8.9154081344604
1477745198837;-5.1720121518883E-6;-5.1720121518883E-6;0.0010704338783398;-0.34656068682671;3.411737203598;8.9166049957275
1477745198884;-0.0010710800997913;-5.1720121518883E-6;0.0010704338783398;-0.3687070608139;3.4165256023407;8.904634475708
1477745198932;-0.0010710800997913;-5.1720121518883E-6;-0.0010613831691444;-0.34177228808403;3.4219126701355;8.8998460769653
1477745198974;-0.0010710800997913;-0.0010710800997913;0.0010704338783398;-0.35075053572655;3.408145904541;8.950722694397
1477745199022;-5.1720121518883E-6;0.0010607364820316;0.0010704338783398;-0.35434183478355;3.4093430042267;8.9417448043823
1477745199069;-5.1720121518883E-6;0.0010607364820316;0.0010704338783398;-0.35374328494072;3.4147300720215;8.9279775619507
1477745199126;-5.1720121518883E-6;-5.1720121518883E-6;4.5253841562953E-6;-0.3585316836834;3.4075474739075;8.9429416656494
1477745199178;-5.1720121518883E-6;0.0010607364820316;-0.0010613831691444;-0.33578675985336;3.4003648757935;8.9130144119263
1477745199225;-0.002136989030987;-5.1720121518883E-6;4.5253841562953E-6;-0.3603273332119;3.411737203598;8.8980503082275
1477745199270;0.0021266450639814;-5.1720121518883E-6;4.5253841562953E-6;-0.34416648745537;3.404554605484;8.9154081344604
1477745199319;-5.1720121518883E-6;-5.1720121518883E-6;-0.0010613831691444;-0.35374328494072;3.4147300720215;8.9297733306885
1477745199364;0.0010607364820316;0.0021266450639814;0.0010704338783398;-0.35972878336906;3.4123358726501;8.9315690994263
1477745199412;-5.1720121518883E-6;-5.1720121518883E-6;4.5253841562953E-6;-0.34596213698387;3.4093430042267;8.8932619094849
1477745199458;-0.0010710800997913;-5.1720121518883E-6;4.5253841562953E-6;-0.34955343604088;3.4135329723358;8.9291744232178
1477745199509;-5.1720121518883E-6;-0.0010710800997913;0.0010704338783398;-0.36092588305473;3.4099416732788;8.9058313369751
1477745199554;-5.1720121518883E-6;-5.1720121518883E-6;-0.0010613831691444;-0.33578675985336;3.4105401039124;8.9339628219604
1477745199600;-0.0010710800997913;-5.1720121518883E-6;-0.0010613831691444;-0.3585316836834;3.408145904541;8.9339628219604
1477745199645;-5.1720121518883E-6;-5.1720121518883E-6;4.5253841562953E-6;-0.35494038462639;3.39737200737;8.8962545394897
1477745199694;-5.1720121518883E-6;-0.0010710800997913;0.0010704338783398;-0.35075053572655;3.4087445735931;8.9201965332031
1477745199739;-0.0010710800997913;0.0010607364820316;-0.0010613831691444;-0.3411737382412;3.4123358726501;8.9249849319458
1477745199787;-5.1720121518883E-6;-0.0010710800997913;0.0010704338783398;-0.34177228808403;3.4093430042267;8.9118165969849
1477745199836;-5.1720121518883E-6;-5.1720121518883E-6;4.5253841562953E-6;-0.3621229827404;3.3961749076843;8.9249849319458
1477745199882;-0.002136989030987;-5.1720121518883E-6;4.5253841562953E-6;-0.3603273332119;3.4290952682495;8.9255838394165
1477745199928;0.0010607364820316;0.0010607364820316;0.0010704338783398;-0.34955343604088;3.400963306427;8.9255838394165
1477745199975;0.0010607364820316;-0.0010710800997913;4.5253841562953E-6;-0.33997663855553;3.411737203598;8.9106197357178
1477745200022;-5.1720121518883E-6;-5.1720121518883E-6;4.5253841562953E-6;-0.33039981126785;3.4111387729645;8.90882396698
1477745200069;0.0010607364820316;0.0010607364820316;0.0010704338783398;-0.34536358714104;3.4159271717072;8.9225912094116
1477745200114;-5.1720121518883E-6;-5.1720121518883E-6;4.5253841562953E-6;-0.3603273332119;3.4063503742218;8.9160070419312
1477745200161;-5.1720121518883E-6;-5.1720121518883E-6;4.5253841562953E-6;-0.34237083792686;3.4272994995117;8.9070281982422
1477745200206;0.0010607364820316;-0.0010710800997913;4.5253841562953E-6;-0.36092588305473;3.4057517051697;8.9106197357178
1477745200256;-5.1720121518883E-6;-0.0010710800997913;0.0010704338783398;-0.34835633635521;3.4171242713928;8.9201965332031
1477745200301;0.0010607364820316;-0.0010710800997913;0.0021363419946283;-0.36332008242607;3.4057517051697;8.9477300643921
1477745200347;-5.1720121518883E-6;-5.1720121518883E-6;4.5253841562953E-6;-0.3621229827404;3.4093430042267;8.9195976257324
1477745200391;-5.1720121518883E-6;-5.1720121518883E-6;4.5253841562953E-6;-0.34057518839836;3.4141314029694;8.9387512207031
1477745200440;-0.0010710800997913;0.0010607364820316;-0.0010613831691444;-0.36092588305473;3.3967735767365;8.9339628219604
1477745200487;-0.0010710800997913;-5.1720121518883E-6;0.0010704338783398;-0.34237083792686;3.4105401039124;8.9405469894409
1477745200535;-0.0010710800997913;-5.1720121518883E-6;4.5253841562953E-6;-0.35733458399773;3.4051532745361;8.9076271057129
1477745200582;-0.0010710800997913;0.0021266450639814;0.0010704338783398;-0.35075053572655;3.4003648757935;8.904634475708
1477745200628;-0.0010710800997913;-5.1720121518883E-6;0.0010704338783398;-0.34775778651237;3.4087445735931;8.9207954406738
1477745200672;-0.0010710800997913;-5.1720121518883E-6;0.0010704338783398;-0.34895488619804;3.4207155704498;8.9154081344604
1477745200719;-0.0010710800997913;0.0010607364820316;0.0010704338783398;-0.36092588305473;3.4075474739075;8.9112186431885
1477745200766;-0.0010710800997913;-5.1720121518883E-6;4.5253841562953E-6;-0.35673603415489;3.422511100769;8.9297733306885
1477745200813;-0.0010710800997913;-5.1720121518883E-6;0.0010704338783398;-0.37050271034241;3.4111387729645;8.9339628219604
1477745200859;-0.002136989030987;-5.1720121518883E-6;0.0010704338783398;-0.35314473509789;3.4123358726501;8.9100208282471
1477745200919;-0.0010710800997913;-0.0010710800997913;0.0010704338783398;-0.37169981002808;3.4147300720215;8.9519195556641
1477745200978;-5.1720121518883E-6;-5.1720121518883E-6;-0.0010613831691444;-0.36990416049957;3.4093430042267;8.9178028106689
1477745201078;-5.1720121518883E-6;0.0010607364820316;4.5253841562953E-6;-0.36332008242607;3.4129343032837;8.8980503082275
1477745201127;-5.1720121518883E-6;0.0010607364820316;0.0010704338783398;-0.37110126018524;3.4087445735931;8.9363574981689
1477745201172;-0.0010710800997913;-5.1720121518883E-6;4.5253841562953E-6;-0.35793313384056;3.404554605484;8.9201965332031
1477745201219;0.0021266450639814;-5.1720121518883E-6;0.0010704338783398;-0.33339256048203;3.418919801712;8.9148092269897
1477745201268;-5.1720121518883E-6;0.0021266450639814;-0.0021272911690176;-0.36930561065674;3.4183213710785;8.9178028106689
1477745201316;0.0010607364820316;-5.1720121518883E-6;-0.0010613831691444;-0.34416648745537;3.404554605484;8.9213933944702
1477745201362;-0.0010710800997913;-5.1720121518883E-6;0.0010704338783398;-0.37948095798492;3.418919801712;8.9016418457031
1477745201411;-5.1720121518883E-6;0.0010607364820316;-0.0010613831691444;-0.34177228808403;3.4087445735931;8.9160070419312
1477745201453;-0.0010710800997913;-0.0010710800997913;-0.0010613831691444;-0.35015198588371;3.4075474739075;8.9094228744507
1477745201499;-5.1720121518883E-6;-0.0010710800997913;4.5253841562953E-6;-0.34416648745537;3.4015619754791;8.9124155044556
1477745201547;-0.002136989030987;-5.1720121518883E-6;0.0021363419946283;-0.34715923666954;3.4183213710785;8.9010429382324
1477745201594;-5.1720121518883E-6;-5.1720121518883E-6;4.5253841562953E-6;-0.34177228808403;3.3967735767365;8.9040355682373
1477745201636;-5.1720121518883E-6;-5.1720121518883E-6;4.5253841562953E-6;-0.35194763541222;3.4057517051697;8.923189163208
1477745201687;-0.002136989030987;-5.1720121518883E-6;0.0010704338783398;-0.34656068682671;3.4105401039124;8.9124155044556
1477745201736;-0.0010710800997913;-5.1720121518883E-6;-0.0010613831691444;-0.3603273332119;3.393780708313;8.9297733306885
1477745201786;-5.1720121518883E-6;0.0010607364820316;0.0010704338783398;-0.34775778651237;3.3907880783081;8.9363574981689
1477745201832;-5.1720121518883E-6;-5.1720121518883E-6;0.0010704338783398;-0.34835633635521;3.4087445735931;8.9195976257324
1477745201880;-5.1720121518883E-6;0.0010607364820316;-0.0010613831691444;-0.33997663855553;3.4171242713928;8.9423427581787
1477745201925;-0.0010710800997913;-5.1720121518883E-6;0.0010704338783398;-0.36571428179741;3.3859996795654;8.932168006897
1477745201975;0.0010607364820316;-5.1720121518883E-6;0.0010704338783398;-0.35194763541222;3.3985691070557;8.9237880706787
1477745202022;0.0010607364820316;-5.1720121518883E-6;0.0010704338783398;-0.33997663855553;3.4147300720215;8.9142112731934
1477745202068;-0.0010710800997913;-5.1720121518883E-6;-0.0010613831691444;-0.35553893446922;3.4201169013977;8.894458770752
1477745202115;-5.1720121518883E-6;0.0010607364820316;4.5253841562953E-6;-0.32680851221085;3.4267010688782;8.9315690994263
1477745202163;-0.0010710800997913;-5.1720121518883E-6;0.0010704338783398;-0.34237083792686;3.4135329723358;8.9106197357178
1477745202210;0.0010607364820316;-5.1720121518883E-6;-0.0010613831691444;-0.34237083792686;3.3991677761078;8.9082260131836
1477745202258;-0.0010710800997913;0.0010607364820316;-0.0021272911690176;-0.3621229827404;3.4027590751648;8.9405469894409
1477745202303;-5.1720121518883E-6;-0.0010710800997913;-0.0010613831691444;-0.35194763541222;3.4111387729645;8.9237880706787
1477745202352;0.0010607364820316;-0.0010710800997913;4.5253841562953E-6;-0.34775778651237;3.4027590751648;8.894458770752
1477745202398;0.0010607364820316;0.0010607364820316;0.0010704338783398;-0.3429693877697;3.4111387729645;8.9130144119263
1477745202445;-5.1720121518883E-6;-5.1720121518883E-6;4.5253841562953E-6;-0.35374328494072;3.4093430042267;8.918999671936
1477745202491;-5.1720121518883E-6;-5.1720121518883E-6;-0.0010613831691444;-0.33638533949852;3.4147300720215;8.8998460769653
1477745202536;-5.1720121518883E-6;-0.0010710800997913;0.0010704338783398;-0.33339256048203;3.4296936988831;8.9279775619507
1477745202581;-5.1720121518883E-6;-5.1720121518883E-6;4.5253841562953E-6;-0.34775778651237;3.415328502655;8.9028387069702
1477745202629;-5.1720121518883E-6;0.0010607364820316;0.0010704338783398;-0.34237083792686;3.4015619754791;8.9142112731934
1477745202676;-0.0010710800997913;-0.0010710800997913;0.0010704338783398;-0.35194763541222;3.4039561748505;8.923189163208
1477745202724;-0.002136989030987;-0.0010710800997913;0.0010704338783398;-0.35613748431206;3.4039561748505;8.9058313369751
1477745202770;-5.1720121518883E-6;-5.1720121518883E-6;-0.0010613831691444;-0.3447650372982;3.4087445735931;8.9207954406738
1477745202815;-5.1720121518883E-6;-0.0010710800997913;0.0010704338783398;-0.36272153258324;3.408145904541;8.9237880706787
1477745202861;-5.1720121518883E-6;0.0010607364820316;0.0010704338783398;-0.35194763541222;3.4171242713928;8.9213933944702
1477745202878;0.0010607364820316;0.0010607364820316;0.0021363419946283;-0.35793313384056;3.4165256023407;8.918999671936
1477745202895;-0.0010710800997913;-5.1720121518883E-6;0.0010704338783398;-0.35793313384056;3.4033575057983;8.9297733306885
1477745202982;-0.0010710800997913;-5.1720121518883E-6;4.5253841562953E-6;-0.3585316836834;3.4171242713928;8.877100944519
1477745203032;-0.0010710800997913;-5.1720121518883E-6;0.0010704338783398;-0.34955343604088;3.4207155704498;8.9273796081543
1477745203080;-0.0010710800997913;-5.1720121518883E-6;4.5253841562953E-6;-0.35733458399773;3.4063503742218;8.923189163208
1477745203128;-0.002136989030987;-0.0010710800997913;0.0010704338783398;-0.34835633635521;3.4141314029694;8.9178028106689
1477745203176;-0.002136989030987;-0.0010710800997913;0.0021363419946283;-0.35254618525505;3.4099416732788;8.8974514007568
1477745203224;-5.1720121518883E-6;0.0010607364820316;4.5253841562953E-6;-0.3621229827404;3.4021604061127;8.9279775619507
1477745203267;-0.0010710800997913;-5.1720121518883E-6;4.5253841562953E-6;-0.34536358714104;3.4021604061127;8.8914661407471
1477745203315;0.0010607364820316;-5.1720121518883E-6;4.5253841562953E-6;-0.35733458399773;3.4171242713928;8.9351606369019
1477745203364;-5.1720121518883E-6;-0.0010710800997913;4.5253841562953E-6;-0.37050271034241;3.4165256023407;8.9016418457031
1477745203411;-5.1720121518883E-6;-5.1720121518883E-6;-0.0010613831691444;-0.35194763541222;3.3883938789368;8.923189163208
1477745203461;-0.0010710800997913;0.0010607364820316;0.0010704338783398;-0.34057518839836;3.3895909786224;8.894458770752
1477745203510;-0.002136989030987;-5.1720121518883E-6;0.0010704338783398;-0.3429693877697;3.4237082004547;8.9255838394165
1477745203557;-5.1720121518883E-6;-5.1720121518883E-6;-0.0010613831691444;-0.3603273332119;3.4051532745361;8.9010429382324
1477745203604;-0.0010710800997913;-0.0010710800997913;4.5253841562953E-6;-0.37349545955658;3.3925836086273;8.9315690994263
1477745203650;0.0010607364820316;-5.1720121518883E-6;4.5253841562953E-6;-0.34057518839836;3.400963306427;8.9106197357178
1477745203699;-0.0010710800997913;0.0010607364820316;0.0010704338783398;-0.35015198588371;3.4237082004547;8.9130144119263
1477745203748;0.0010607364820316;-0.0010710800997913;0.0021363419946283;-0.34356793761253;3.3967735767365;8.9303722381592
1477745203799;-5.1720121518883E-6;-5.1720121518883E-6;4.5253841562953E-6;-0.34356793761253;3.4195184707642;8.9124155044556
1477745203848;-5.1720121518883E-6;-5.1720121518883E-6;4.5253841562953E-6;-0.34536358714104;3.4159271717072;8.9195976257324
1477745203896;-5.1720121518883E-6;0.0010607364820316;0.0010704338783398;-0.35553893446922;3.4129343032837;8.923189163208
1477745203946;-0.0010710800997913;-5.1720121518883E-6;-0.0010613831691444;-0.33937808871269;3.4033575057983;8.9261817932129
1477745203993;-0.0010710800997913;0.0010607364820316;0.0010704338783398;-0.35434183478355;3.4099416732788;8.9082260131836
1477745204040;-5.1720121518883E-6;-5.1720121518883E-6;0.0021363419946283;-0.35314473509789;3.3913865089417;8.9082260131836
1477745204090;-0.0010710800997913;-5.1720121518883E-6;4.5253841562953E-6;-0.34775778651237;3.4123358726501;8.9219923019409
1477745204138;-0.0010710800997913;-0.0010710800997913;0.0010704338783398;-0.35494038462639;3.4021604061127;8.9166049957275
1477745204187;0.0010607364820316;-5.1720121518883E-6;4.5253841562953E-6;-0.35494038462639;3.4075474739075;8.9136123657227
1477745204239;-5.1720121518883E-6;-5.1720121518883E-6;0.0010704338783398;-0.35673603415489;3.404554605484;8.9052324295044
1477745204288;-5.1720121518883E-6;-5.1720121518883E-6;-0.0010613831691444;-0.34356793761253;3.3949778079987;8.9166049957275
1477745204335;-0.0010710800997913;0.0010607364820316;0.0010704338783398;-0.34835633635521;3.4075474739075;8.9201965332031
1477745204385;-0.0010710800997913;-5.1720121518883E-6;4.5253841562953E-6;-0.36332008242607;3.4195184707642;8.9094228744507
1477745204432;0.0010607364820316;0.0010607364820316;4.5253841562953E-6;-0.36990416049957;3.4213140010834;8.918999671936
1477745204480;-0.0010710800997913;-5.1720121518883E-6;0.0010704338783398;-0.34895488619804;3.400963306427;8.9184007644653
1477745204527;-0.0010710800997913;-5.1720121518883E-6;0.0010704338783398;-0.35314473509789;3.4099416732788;8.9291744232178
1477745204576;0.0010607364820316;-0.0010710800997913;4.5253841562953E-6;-0.33818098902702;3.4308907985687;8.9076271057129
1477745204623;0.0010607364820316;0.0010607364820316;4.5253841562953E-6;-0.36810851097107;3.3985691070557;8.9112186431885
1477745204673;-5.1720121518883E-6;-5.1720121518883E-6;4.5253841562953E-6;-0.34895488619804;3.4219126701355;8.9363574981689
1477745204725;-5.1720121518883E-6;-5.1720121518883E-6;4.5253841562953E-6;-0.33818098902702;3.4003648757935;8.9549121856689
1477745204781;-0.0010710800997913;0.0010607364820316;0.0010704338783398;-0.32441431283951;3.4003648757935;8.9345617294312
1477745204831;0.0010607364820316;-0.0010710800997913;4.5253841562953E-6;-0.34955343604088;3.4003648757935;8.8932619094849
1477745204880;-5.1720121518883E-6;-5.1720121518883E-6;0.0010704338783398;-0.33518821001053;3.4123358726501;8.8974514007568
1477745204930;-5.1720121518883E-6;-5.1720121518883E-6;4.5253841562953E-6;-0.37229835987091;3.4003648757935;8.9154081344604
1477745204980;-0.0010710800997913;0.0010607364820316;4.5253841562953E-6;-0.35434183478355;3.415328502655;8.923189163208
1477745205029;-0.0010710800997913;0.0010607364820316;4.5253841562953E-6;-0.34356793761253;3.4057517051697;8.9339628219604
1477745205080;-5.1720121518883E-6;-0.0010710800997913;4.5253841562953E-6;-0.35613748431206;3.4195184707642;8.9172039031982
1477745205129;-5.1720121518883E-6;-5.1720121518883E-6;-0.0010613831691444;-0.3603273332119;3.4201169013977;8.9040355682373
1477745205180;-5.1720121518883E-6;0.0010607364820316;4.5253841562953E-6;-0.35374328494072;3.4183213710785;8.8938608169556
1477745205229;-0.0010710800997913;0.0010607364820316;0.0010704338783398;-0.36272153258324;3.4207155704498;8.9058313369751
1477745205283;-5.1720121518883E-6;-5.1720121518883E-6;-0.0010613831691444;-0.35015198588371;3.4057517051697;8.9154081344604
1477745205335;-5.1720121518883E-6;-5.1720121518883E-6;0.0010704338783398;-0.34596213698387;3.4069488048553;8.9339628219604
1477745205384;-0.0010710800997913;0.0010607364820316;4.5253841562953E-6;-0.36691138148308;3.4219126701355;8.9411458969116
1477745205432;0.0010607364820316;-5.1720121518883E-6;4.5253841562953E-6;-0.35254618525505;3.4135329723358;8.9303722381592
1477745205481;0.0010607364820316;0.0010607364820316;0.0010704338783398;-0.34177228808403;3.4129343032837;8.9136123657227
1477745205531;-0.0010710800997913;-5.1720121518883E-6;0.0021363419946283;-0.34656068682671;3.4183213710785;8.9201965332031
1477745205580;-5.1720121518883E-6;0.0021266450639814;4.5253841562953E-6;-0.34356793761253;3.4201169013977;8.9405469894409
1477745205630;-5.1720121518883E-6;0.0010607364820316;4.5253841562953E-6;-0.34775778651237;3.415328502655;8.9142112731934
1477745205681;-5.1720121518883E-6;0.0010607364820316;4.5253841562953E-6;-0.3447650372982;3.4213140010834;8.9118165969849
1477745205730;0.0010607364820316;0.0010607364820316;4.5253841562953E-6;-0.35494038462639;3.3985691070557;8.8974514007568
1477745205778;-5.1720121518883E-6;0.0010607364820316;4.5253841562953E-6;-0.35673603415489;3.3943793773651;8.9160070419312
1477745205827;-0.0010710800997913;-0.0010710800997913;-0.0010613831691444;-0.36152443289757;3.4177227020264;8.9423427581787
1477745205875;0.0010607364820316;0.0010607364820316;0.0021363419946283;-0.35434183478355;3.4105401039124;8.9207954406738
1477745205925;0.0010607364820316;-5.1720121518883E-6;0.0010704338783398;-0.35673603415489;3.3967735767365;8.9309701919556
1477745205974;-5.1720121518883E-6;0.0010607364820316;0.0021363419946283;-0.35015198588371;3.4177227020264;8.9237880706787
1477745206022;-5.1720121518883E-6;0.0010607364820316;0.0010704338783398;-0.3447650372982;3.4201169013977;8.9118165969849
1477745206070;-0.0010710800997913;-5.1720121518883E-6;0.0010704338783398;-0.35374328494072;3.404554605484;8.9195976257324
1477745206119;-0.0010710800997913;-5.1720121518883E-6;4.5253841562953E-6;-0.3621229827404;3.4272994995117;8.9261817932129
1477745206168;0.0021266450639814;-5.1720121518883E-6;0.0010704338783398;-0.34656068682671;3.4087445735931;8.8986492156982
1477745206216;-5.1720121518883E-6;-5.1720121518883E-6;4.5253841562953E-6;-0.35194763541222;3.4111387729645;8.904634475708
1477745206265;-0.0010710800997913;0.0010607364820316;4.5253841562953E-6;-0.35553893446922;3.4093430042267;8.9076271057129
1477745206314;-5.1720121518883E-6;0.0010607364820316;0.0010704338783398;-0.3411737382412;3.4069488048553;8.9124155044556
1477745206361;-5.1720121518883E-6;-5.1720121518883E-6;4.5253841562953E-6;-0.3621229827404;3.4033575057983;8.9345617294312
1477745206409;-5.1720121518883E-6;-5.1720121518883E-6;4.5253841562953E-6;-0.34715923666954;3.4338836669922;8.8980503082275
1477745206457;-0.002136989030987;0.0021266450639814;4.5253841562953E-6;-0.36571428179741;3.4165256023407;8.9130144119263
1477745206505;-0.0010710800997913;0.0010607364820316;0.0010704338783398;-0.34775778651237;3.4099416732788;8.9130144119263
1477745206553;-5.1720121518883E-6;0.0010607364820316;4.5253841562953E-6;-0.33997663855553;3.4159271717072;8.9124155044556
1477745206602;-0.0010710800997913;-5.1720121518883E-6;4.5253841562953E-6;-0.36990416049957;3.4141314029694;8.918999671936
1477745206650;-5.1720121518883E-6;0.0010607364820316;4.5253841562953E-6;-0.34895488619804;3.4105401039124;8.9160070419312
1477745206702;-5.1720121518883E-6;0.0010607364820316;4.5253841562953E-6;-0.36092588305473;3.4147300720215;8.918999671936
1477745206752;-0.002136989030987;-5.1720121518883E-6;4.5253841562953E-6;-0.34177228808403;3.3925836086273;8.932168006897
1477745206799;-5.1720121518883E-6;-5.1720121518883E-6;4.5253841562953E-6;-0.36152443289757;3.4123358726501;8.9309701919556
1477745206850;0.0010607364820316;-5.1720121518883E-6;4.5253841562953E-6;-0.3603273332119;3.418919801712;8.9327659606934
1477745206899;0.0010607364820316;-5.1720121518883E-6;4.5253841562953E-6;-0.34596213698387;3.4159271717072;8.9255838394165
1477745206948;0.0010607364820316;0.0010607364820316;4.5253841562953E-6;-0.33997663855553;3.4039561748505;8.904634475708
1477745206996;-5.1720121518883E-6;-5.1720121518883E-6;4.5253841562953E-6;-0.34237083792686;3.4165256023407;8.9225912094116
1477745207047;0.0010607364820316;-5.1720121518883E-6;4.5253841562953E-6;-0.35194763541222;3.4243068695068;8.8986492156982
1477745207096;-5.1720121518883E-6;-5.1720121518883E-6;4.5253841562953E-6;-0.33877953886986;3.4075474739075;8.9022397994995
1477745207146;-0.0010710800997913;-5.1720121518883E-6;-0.0010613831691444;-0.35494038462639;3.3919851779938;8.918999671936
1477745207195;-0.0010710800997913;0.0010607364820316;4.5253841562953E-6;-0.35613748431206;3.408145904541;8.9076271057129
1477745207244;-0.0010710800997913;-5.1720121518883E-6;4.5253841562953E-6;-0.35913023352623;3.422511100769;8.9118165969849
1477745207293;-0.0010710800997913;-5.1720121518883E-6;-0.0010613831691444;-0.36332008242607;3.4267010688782;8.9393501281738
1477745207341;0.0010607364820316;-0.0010710800997913;0.0010704338783398;-0.35793313384056;3.4159271717072;8.9297733306885
1477745207390;-5.1720121518883E-6;0.0010607364820316;0.0010704338783398;-0.3621229827404;3.411737203598;8.9195976257324
1477745207439;-5.1720121518883E-6;0.0010607364820316;0.0010704338783398;-0.35374328494072;3.4183213710785;8.9058313369751
1477745207488;-0.0010710800997913;-5.1720121518883E-6;4.5253841562953E-6;-0.35134908556938;3.4135329723358;8.9219923019409
1477745207537;-0.0010710800997913;-0.0010710800997913;4.5253841562953E-6;-0.3429693877697;3.4213140010834;8.9303722381592
1477745207586;-5.1720121518883E-6;0.0010607364820316;4.5253841562953E-6;-0.35553893446922;3.3913865089417;8.9028387069702
1477745207637;0.0010607364820316;0.0010607364820316;0.0010704338783398;-0.36691138148308;3.4039561748505;8.9381532669067
1477745207686;-0.0010710800997913;-5.1720121518883E-6;4.5253841562953E-6;-0.3687070608139;3.4177227020264;8.9261817932129
1477745207735;0.0010607364820316;-5.1720121518883E-6;-0.0010613831691444;-0.34955343604088;3.4063503742218;8.9124155044556
1477745207783;-5.1720121518883E-6;-0.0010710800997913;4.5253841562953E-6;-0.36511573195457;3.4003648757935;8.9243860244751
1477745207834;-0.0010710800997913;0.0010607364820316;4.5253841562953E-6;-0.36631283164024;3.3967735767365;8.9106197357178
1477745207884;-0.0010710800997913;-5.1720121518883E-6;0.0010704338783398;-0.36332008242607;3.4057517051697;8.9225912094116
1477745207932;-5.1720121518883E-6;-0.0010710800997913;4.5253841562953E-6;-0.36691138148308;3.3931822776794;8.9339628219604
1477745207985;-0.0010710800997913;-5.1720121518883E-6;4.5253841562953E-6;-0.34775778651237;3.4051532745361;8.9124155044556
1477745208033;-5.1720121518883E-6;-5.1720121518883E-6;-0.0021272911690176;-0.34775778651237;3.4177227020264;8.9261817932129
1477745208083;0.0010607364820316;-0.0010710800997913;0.0010704338783398;-0.36391863226891;3.4105401039124;8.9166049957275
1477745208131;-5.1720121518883E-6;-5.1720121518883E-6;4.5253841562953E-6;-0.36092588305473;3.4111387729645;8.9195976257324
1477745208181;-0.0010710800997913;-5.1720121518883E-6;0.0010704338783398;-0.3447650372982;3.4129343032837;8.9160070419312
1477745208230;-5.1720121518883E-6;-5.1720121518883E-6;4.5253841562953E-6;-0.3603273332119;3.4201169013977;8.9076271057129
1477745208277;0.0021266450639814;-5.1720121518883E-6;-0.0021272911690176;-0.37229835987091;3.4093430042267;8.9201965332031
1477745208325;0.0021266450639814;-0.0010710800997913;-0.0021272911690176;-0.35134908556938;3.4147300720215;8.9106197357178
1477745208374;-5.1720121518883E-6;-5.1720121518883E-6;4.5253841562953E-6;-0.37588965892792;3.3919851779938;8.9178028106689
1477745208422;-5.1720121518883E-6;0.0010607364820316;4.5253841562953E-6;-0.34835633635521;3.4111387729645;8.9327659606934
1477745208472;-0.0010710800997913;-5.1720121518883E-6;-0.0010613831691444;-0.35494038462639;3.39737200737;8.9142112731934
1477745208523;-0.0010710800997913;-0.0010710800997913;0.0010704338783398;-0.3603273332119;3.4099416732788;8.9178028106689
1477745208571;-5.1720121518883E-6;-5.1720121518883E-6;0.0010704338783398;-0.36750993132591;3.4141314029694;8.9285764694214
1477745208620;-5.1720121518883E-6;-5.1720121518883E-6;4.5253841562953E-6;-0.3585316836834;3.4290952682495;8.9004440307617
1477745208671;-5.1720121518883E-6;0.0010607364820316;-0.0010613831691444;-0.33099836111069;3.408145904541;8.9501237869263
1477745208722;-0.0010710800997913;-0.0010710800997913;4.5253841562953E-6;-0.37050271034241;3.4057517051697;8.9142112731934
1477745208771;-0.0010710800997913;-0.0010710800997913;4.5253841562953E-6;-0.37229835987091;3.408145904541;8.918999671936
1477745208821;-0.0010710800997913;-5.1720121518883E-6;-0.0010613831691444;-0.3447650372982;3.4075474739075;8.9184007644653
1477745208871;-5.1720121518883E-6;-5.1720121518883E-6;4.5253841562953E-6;-0.33339256048203;3.4129343032837;8.9225912094116
1477745208923;0.0010607364820316;-5.1720121518883E-6;-0.0021272911690176;-0.34955343604088;3.4087445735931;8.9082260131836
1477745208973;0.0010607364820316;-5.1720121518883E-6;-0.0010613831691444;-0.36391863226891;3.3991677761078;8.9058313369751
1477745209025;-5.1720121518883E-6;0.0021266450639814;4.5253841562953E-6;-0.36571428179741;3.418919801712;8.923189163208
1477745209074;-0.0010710800997913;-0.0010710800997913;0.0010704338783398;-0.36691138148308;3.4278981685638;8.9297733306885
1477745209124;-0.0010710800997913;-5.1720121518883E-6;4.5253841562953E-6;-0.34715923666954;3.4171242713928;8.932168006897
1477745209173;-5.1720121518883E-6;0.0010607364820316;4.5253841562953E-6;-0.36391863226891;3.4063503742218;8.923189163208
1477745209222;-0.0010710800997913;-5.1720121518883E-6;0.0010704338783398;-0.36332008242607;3.4003648757935;8.9166049957275
1477745209276;0.0010607364820316;-5.1720121518883E-6;4.5253841562953E-6;-0.34955343604088;3.4249053001404;8.9273796081543
1477745209324;0.0010607364820316;0.0010607364820316;4.5253841562953E-6;-0.35374328494072;3.4171242713928;8.9034376144409
1477745209373;-0.0010710800997913;0.0021266450639814;4.5253841562953E-6;-0.3687070608139;3.4243068695068;8.9333648681641
1477745209420;-5.1720121518883E-6;-5.1720121518883E-6;4.5253841562953E-6;-0.36391863226891;3.4249053001404;8.9201965332031
1477745209469;-5.1720121518883E-6;0.0010607364820316;-0.0021272911690176;-0.36691138148308;3.4207155704498;8.923189163208
1477745209518;0.0021266450639814;-5.1720121518883E-6;0.0010704338783398;-0.36092588305473;3.4027590751648;8.9315690994263
1477745209566;-5.1720121518883E-6;-5.1720121518883E-6;4.5253841562953E-6;-0.34835633635521;3.426102399826;8.9279775619507
1477745209615;-0.0010710800997913;0.0010607364820316;0.0010704338783398;-0.3585316836834;3.4111387729645;8.9213933944702
1477745209666;0.0010607364820316;0.0010607364820316;4.5253841562953E-6;-0.38067805767059;3.4171242713928;8.8992471694946
1477745209716;-5.1720121518883E-6;0.0010607364820316;4.5253841562953E-6;-0.34177228808403;3.4231097698212;8.9351606369019
1477745209767;-0.002136989030987;0.0010607364820316;0.0010704338783398;-0.33758243918419;3.3943793773651;8.9160070419312
1477745209816;-5.1720121518883E-6;-5.1720121518883E-6;-0.0010613831691444;-0.35793313384056;3.3931822776794;8.9201965332031
1477745209865;0.0010607364820316;-5.1720121518883E-6;0.0010704338783398;-0.37110126018524;3.4165256023407;8.9106197357178
1477745209915;-5.1720121518883E-6;-5.1720121518883E-6;-0.0010613831691444;-0.33877953886986;3.4255039691925;8.9279775619507
1477745209964;-0.0010710800997913;-5.1720121518883E-6;-0.0010613831691444;-0.35194763541222;3.4135329723358;8.9207954406738
1477745210015;-5.1720121518883E-6;-5.1720121518883E-6;4.5253841562953E-6;-0.34656068682671;3.3997662067413;8.9405469894409
1477745210065;0.0010607364820316;-0.0010710800997913;-0.0010613831691444;-0.35314473509789;3.426102399826;8.9381532669067
1477745210113;-0.0010710800997913;0.0010607364820316;-0.0010613831691444;-0.34835633635521;3.3943793773651;8.9267807006836
1477745210169;-5.1720121518883E-6;0.0010607364820316;4.5253841562953E-6;-0.35613748431206;3.4267010688782;8.9201965332031
1477745210218;-0.0010710800997913;0.0010607364820316;0.0010704338783398;-0.3411737382412;3.4201169013977;8.9112186431885
1477745210270;0.0010607364820316;-5.1720121518883E-6;0.0010704338783398;-0.36391863226891;3.4171242713928;8.9178028106689
1477745210319;0.0021266450639814;-5.1720121518883E-6;4.5253841562953E-6;-0.37349545955658;3.4021604061127;8.8980503082275
1477745210367;-5.1720121518883E-6;-5.1720121518883E-6;4.5253841562953E-6;-0.3603273332119;3.4201169013977;8.9363574981689
1477745210417;-5.1720121518883E-6;-5.1720121518883E-6;-0.0010613831691444;-0.3585316836834;3.4195184707642;8.9106197357178
1477745210469;-0.0010710800997913;-5.1720121518883E-6;0.0010704338783398;-0.34177228808403;3.422511100769;8.9148092269897
1477745210518;0.0010607364820316;-0.0010710800997913;4.5253841562953E-6;-0.35613748431206;3.4231097698212;8.9130144119263
1477745210566;0.0010607364820316;0.0010607364820316;4.5253841562953E-6;-0.35374328494072;3.4165256023407;8.9118165969849
1477745210615;0.0010607364820316;-0.0010710800997913;4.5253841562953E-6;-0.36332008242607;3.4093430042267;8.923189163208
1477745210665;-5.1720121518883E-6;-0.0010710800997913;0.0021363419946283;-0.35613748431206;3.4195184707642;8.932168006897
1477745210714;-5.1720121518883E-6;-5.1720121518883E-6;-0.0010613831691444;-0.33219546079636;3.4099416732788;8.9148092269897
1477745210769;0.0010607364820316;-5.1720121518883E-6;4.5253841562953E-6;-0.35314473509789;3.4147300720215;8.9219923019409
1477745210819;-5.1720121518883E-6;-0.0010710800997913;4.5253841562953E-6;-0.35254618525505;3.4063503742218;8.9249849319458
1477745210872;-0.0010710800997913;-5.1720121518883E-6;-0.0010613831691444;-0.35972878336906;3.4272994995117;8.9267807006836
1477745210922;-0.0010710800997913;0.0010607364820316;-0.0010613831691444;-0.35613748431206;3.4284965991974;8.9124155044556
1477745210979;0.0010607364820316;0.0010607364820316;4.5253841562953E-6;-0.36571428179741;3.4320878982544;8.9219923019409
1477745211029;-5.1720121518883E-6;-5.1720121518883E-6;4.5253841562953E-6;-0.34955343604088;3.3991677761078;8.9142112731934
1477745211078;-5.1720121518883E-6;-5.1720121518883E-6;4.5253841562953E-6;-0.35194763541222;3.4027590751648;8.923189163208
1477745211128;-5.1720121518883E-6;-5.1720121518883E-6;0.0010704338783398;-0.34955343604088;3.4021604061127;8.9028387069702
1477745211178;-0.0010710800997913;-0.0010710800997913;4.5253841562953E-6;-0.36152443289757;3.4099416732788;8.9291744232178
1477745211226;0.0010607364820316;-5.1720121518883E-6;0.0010704338783398;-0.35494038462639;3.404554605484;8.9136123657227
1477745211276;0.0010607364820316;-0.0010710800997913;4.5253841562953E-6;-0.34775778651237;3.4111387729645;8.9285764694214
1477745211326;-5.1720121518883E-6;-0.0010710800997913;-0.0010613831691444;-0.35613748431206;3.4207155704498;8.9291744232178
1477745211375;0.0010607364820316;-5.1720121518883E-6;-0.0010613831691444;-0.35972878336906;3.4177227020264;8.90882396698
1477745211424;-5.1720121518883E-6;-5.1720121518883E-6;4.5253841562953E-6;-0.34835633635521;3.3979706764221;8.9219923019409
1477745211473;-0.0010710800997913;-5.1720121518883E-6;4.5253841562953E-6;-0.35434183478355;3.4278981685638;8.9148092269897
1477745211524;-0.002136989030987;-5.1720121518883E-6;4.5253841562953E-6;-0.34835633635521;3.4147300720215;8.9249849319458
1477745211573;0.0010607364820316;-0.0010710800997913;4.5253841562953E-6;-0.35494038462639;3.4051532745361;8.9285764694214
1477745211622;-0.0010710800997913;-0.0010710800997913;-0.0010613831691444;-0.34895488619804;3.4195184707642;8.9291744232178
1477745211673;-5.1720121518883E-6;0.0010607364820316;4.5253841562953E-6;-0.35553893446922;3.4063503742218;8.9201965332031
1477745211724;0.0010607364820316;-5.1720121518883E-6;4.5253841562953E-6;-0.35613748431206;3.4201169013977;8.9297733306885
1477745211774;-0.0010710800997913;0.0010607364820316;4.5253841562953E-6;-0.36990416049957;3.4231097698212;8.9303722381592
1477745211823;-0.0010710800997913;0.0010607364820316;4.5253841562953E-6;-0.34536358714104;3.3955764770508;8.9040355682373
1477745211877;-0.0010710800997913;-5.1720121518883E-6;4.5253841562953E-6;-0.35075053572655;3.418919801712;8.9243860244751
1477745211928;-0.0010710800997913;-5.1720121518883E-6;4.5253841562953E-6;-0.33159691095352;3.4177227020264;8.9094228744507
1477745211977;-5.1720121518883E-6;-5.1720121518883E-6;0.0010704338783398;-0.35075053572655;3.4129343032837;8.9040355682373
1477745212029;-5.1720121518883E-6;-5.1720121518883E-6;4.5253841562953E-6;-0.35374328494072;3.4165256023407;8.918999671936
1477745212081;-5.1720121518883E-6;0.0010607364820316;4.5253841562953E-6;-0.36152443289757;3.3967735767365;8.9112186431885
1477745212133;-5.1720121518883E-6;0.0010607364820316;4.5253841562953E-6;-0.35793313384056;3.422511100769;8.9178028106689
1477745212186;-0.0010710800997913;0.0010607364820316;-0.0010613831691444;-0.34356793761253;3.4243068695068;8.9076271057129
1477745212237;-5.1720121518883E-6;0.0010607364820316;4.5253841562953E-6;-0.37648820877075;3.415328502655;8.9315690994263
1477745212285;-5.1720121518883E-6;-5.1720121518883E-6;4.5253841562953E-6;-0.35553893446922;3.4033575057983;8.9028387069702
1477745212336;-0.0010710800997913;-0.002136989030987;4.5253841562953E-6;-0.36092588305473;3.3949778079987;8.918999671936
1477745212385;-5.1720121518883E-6;-0.0010710800997913;0.0010704338783398;-0.35793313384056;3.426102399826;8.8986492156982
1477745212435;0.0010607364820316;-0.0010710800997913;4.5253841562953E-6;-0.34416648745537;3.404554605484;8.9279775619507
1477745212484;-5.1720121518883E-6;-5.1720121518883E-6;4.5253841562953E-6;-0.34715923666954;3.4219126701355;8.8968534469604
1477745212535;-0.0010710800997913;-0.002136989030987;4.5253841562953E-6;-0.37110126018524;3.400963306427;8.918999671936
1477745212585;-0.0010710800997913;-0.002136989030987;-0.0010613831691444;-0.36750993132591;3.4255039691925;8.904634475708
1477745212636;-0.0010710800997913;-5.1720121518883E-6;4.5253841562953E-6;-0.36810851097107;3.3949778079987;8.9082260131836
1477745212687;0.0010607364820316;-5.1720121518883E-6;4.5253841562953E-6;-0.34835633635521;3.411737203598;8.9315690994263
1477745212736;-5.1720121518883E-6;0.0010607364820316;-0.0010613831691444;-0.34955343604088;3.4111387729645;8.9207954406738
1477745212787;-5.1720121518883E-6;-0.0010710800997913;0.0010704338783398;-0.36332008242607;3.4135329723358;8.9082260131836
1477745212836;-5.1720121518883E-6;0.0010607364820316;0.0010704338783398;-0.35194763541222;3.404554605484;8.9249849319458
1477745212887;-0.0010710800997913;0.0021266450639814;-0.0010613831691444;-0.35075053572655;3.4296936988831;8.9106197357178
1477745212937;-5.1720121518883E-6;0.0010607364820316;4.5253841562953E-6;-0.34057518839836;3.4278981685638;8.9058313369751
1477745212987;-0.0010710800997913;0.0010607364820316;0.0010704338783398;-0.37050271034241;3.3991677761078;8.9213933944702
1477745213037;-0.0010710800997913;-5.1720121518883E-6;0.0010704338783398;-0.3585316836834;3.3985691070557;8.9399490356445
1477745213087;-5.1720121518883E-6;0.0010607364820316;4.5253841562953E-6;-0.36152443289757;3.4183213710785;8.9363574981689
1477745213138;-0.0010710800997913;0.0021266450639814;4.5253841562953E-6;-0.35613748431206;3.4135329723358;8.9447374343872
1477745213188;-5.1720121518883E-6;0.0010607364820316;-0.0010613831691444;-0.34656068682671;3.4075474739075;8.9243860244751
1477745213238;0.0010607364820316;-0.0010710800997913;0.0010704338783398;-0.33518821001053;3.390189409256;8.9034376144409
1477745213289;-5.1720121518883E-6;0.0010607364820316;4.5253841562953E-6;-0.33518821001053;3.4057517051697;8.9363574981689
1477745213337;-0.0010710800997913;-0.0010710800997913;-0.0010613831691444;-0.34955343604088;3.4195184707642;8.9034376144409
1477745213389;0.0010607364820316;-5.1720121518883E-6;4.5253841562953E-6;-0.3447650372982;3.4051532745361;8.9201965332031
1477745213441;-5.1720121518883E-6;-0.0010710800997913;0.0010704338783398;-0.33997663855553;3.415328502655;8.9022397994995
1477745213494;0.0010607364820316;-0.0010710800997913;0.0010704338783398;-0.33458966016769;3.4207155704498;8.8998460769653
1477745213542;-0.0010710800997913;-0.0010710800997913;-0.0010613831691444;-0.34895488619804;3.3895909786224;8.9249849319458
1477745213593;0.0010607364820316;-5.1720121518883E-6;4.5253841562953E-6;-0.36451718211174;3.3949778079987;8.9261817932129
1477745213641;-5.1720121518883E-6;-5.1720121518883E-6;-0.0010613831691444;-0.35793313384056;3.415328502655;8.9022397994995
1477745213696;-5.1720121518883E-6;0.0010607364820316;-0.0010613831691444;-0.36990416049957;3.39737200737;8.9255838394165
1477745213743;-0.002136989030987;0.0021266450639814;0.0010704338783398;-0.3603273332119;3.4135329723358;8.9267807006836
1477745213794;-5.1720121518883E-6;0.0010607364820316;4.5253841562953E-6;-0.35793313384056;3.4177227020264;8.8992471694946
1477745213844;-0.0010710800997913;-5.1720121518883E-6;0.0010704338783398;-0.34656068682671;3.4278981685638;8.9154081344604
1477745213895;-5.1720121518883E-6;-5.1720121518883E-6;0.0010704338783398;-0.35194763541222;3.3955764770508;8.9166049957275
1477745213945;-5.1720121518883E-6;-5.1720121518883E-6;4.5253841562953E-6;-0.35553893446922;3.4338836669922;8.9118165969849
1477745213996;0.0010607364820316;0.0021266450639814;0.0010704338783398;-0.35374328494072;3.411737203598;8.9267807006836
1477745214047;-5.1720121518883E-6;-5.1720121518883E-6;4.5253841562953E-6;-0.35075053572655;3.4177227020264;8.895655632019
1477745214098;-0.0010710800997913;-5.1720121518883E-6;-0.0010613831691444;-0.37529110908508;3.4350807666779;8.9094228744507
1477745214147;-5.1720121518883E-6;0.0010607364820316;4.5253841562953E-6;-0.35134908556938;3.4171242713928;8.9100208282471
1477745214197;-0.0010710800997913;-5.1720121518883E-6;4.5253841562953E-6;-0.35673603415489;3.4111387729645;8.9435396194458
1477745214246;-0.0010710800997913;0.0021266450639814;4.5253841562953E-6;-0.37050271034241;3.411737203598;8.8974514007568
1477745214297;-5.1720121518883E-6;0.0010607364820316;4.5253841562953E-6;-0.3603273332119;3.404554605484;8.9219923019409
1477745214349;-0.0010710800997913;-5.1720121518883E-6;4.5253841562953E-6;-0.34715923666954;3.4171242713928;8.9070281982422
1477745214402;-0.0010710800997913;0.0021266450639814;4.5253841562953E-6;-0.33997663855553;3.3836054801941;8.9040355682373
1477745214458;-5.1720121518883E-6;-5.1720121518883E-6;0.0010704338783398;-0.35553893446922;3.4123358726501;8.8866777420044
1477745214508;0.0010607364820316;0.0010607364820316;4.5253841562953E-6;-0.35673603415489;3.4272994995117;8.9405469894409
1477745214557;-0.002136989030987;-5.1720121518883E-6;4.5253841562953E-6;-0.34895488619804;3.4099416732788;8.9112186431885
1477745214606;-5.1720121518883E-6;0.0010607364820316;4.5253841562953E-6;-0.35913023352623;3.4183213710785;8.9178028106689
1477745214658;-0.0010710800997913;-5.1720121518883E-6;-0.0010613831691444;-0.35015198588371;3.4195184707642;8.9040355682373
1477745214711;-0.0010710800997913;-5.1720121518883E-6;4.5253841562953E-6;-0.36571428179741;3.418919801712;8.9100208282471
1477745214760;-5.1720121518883E-6;-5.1720121518883E-6;-0.0010613831691444;-0.35314473509789;3.404554605484;8.9166049957275
1477745214811;-0.0010710800997913;-5.1720121518883E-6;0.0010704338783398;-0.34715923666954;3.408145904541;8.9513216018677
1477745214863;-0.0010710800997913;0.0010607364820316;-0.0010613831691444;-0.37289690971375;3.4141314029694;8.9148092269897
1477745214912;-0.0010710800997913;-0.002136989030987;0.0010704338783398;-0.34656068682671;3.4099416732788;8.9273796081543
1477745214965;-5.1720121518883E-6;-5.1720121518883E-6;4.5253841562953E-6;-0.36691138148308;3.4129343032837;8.9219923019409
1477745215016;-0.0010710800997913;0.0010607364820316;0.0010704338783398;-0.3603273332119;3.4069488048553;8.9243860244751
1477745215066;-0.0010710800997913;-5.1720121518883E-6;-0.0021272911690176;-0.36391863226891;3.4267010688782;8.918999671936
1477745215116;-0.0010710800997913;-0.0010710800997913;0.0010704338783398;-0.35553893446922;3.4003648757935;8.9166049957275
1477745215167;-0.0010710800997913;-0.0010710800997913;4.5253841562953E-6;-0.35553893446922;3.3985691070557;8.9381532669067
1477745215218;0.0010607364820316;0.0021266450639814;4.5253841562953E-6;-0.36451718211174;3.4219126701355;8.8980503082275
1477745215270;0.0010607364820316;0.0021266450639814;0.0010704338783398;-0.34596213698387;3.4123358726501;8.9405469894409
1477745215321;0.0010607364820316;0.0010607364820316;-0.0010613831691444;-0.33818098902702;3.400963306427;8.9100208282471
1477745215371;-0.0010710800997913;-5.1720121518883E-6;4.5253841562953E-6;-0.35913023352623;3.3925836086273;8.9291744232178
1477745215420;-0.002136989030987;-5.1720121518883E-6;4.5253841562953E-6;-0.36092588305473;3.4093430042267;8.9034376144409
1477745215470;-5.1720121518883E-6;-0.0010710800997913;-0.003193199634552;-0.3621229827404;3.4093430042267;8.9285764694214
1477745215519;-0.002136989030987;0.0010607364820316;-0.0010613831691444;-0.33997663855553;3.4057517051697;8.9399490356445
1477745215571;-0.0010710800997913;-0.0010710800997913;0.0010704338783398;-0.34356793761253;3.4207155704498;8.9106197357178
1477745215622;-5.1720121518883E-6;-0.0010710800997913;0.0010704338783398;-0.35254618525505;3.4231097698212;8.9178028106689
1477745215675;-5.1720121518883E-6;0.0010607364820316;-0.0010613831691444;-0.3447650372982;3.4159271717072;8.9124155044556
1477745215727;0.0010607364820316;-5.1720121518883E-6;-0.0021272911690176;-0.37349545955658;3.4123358726501;8.8998460769653
1477745215778;0.0010607364820316;-0.0010710800997913;-0.0010613831691444;-0.35494038462639;3.4069488048553;8.9279775619507
1477745215829;-5.1720121518883E-6;-5.1720121518883E-6;4.5253841562953E-6;-0.35793313384056;3.4201169013977;8.8998460769653
1477745215878;0.0021266450639814;-5.1720121518883E-6;-0.0010613831691444;-0.34835633635521;3.4195184707642;8.9279775619507
1477745215929;0.0010607364820316;0.0010607364820316;0.0010704338783398;-0.34895488619804;3.4105401039124;8.9459342956543
1477745215979;-5.1720121518883E-6;-5.1720121518883E-6;-0.0010613831691444;-0.32740706205368;3.4380733966827;8.9076271057129
1477745216031;-5.1720121518883E-6;-0.0010710800997913;4.5253841562953E-6;-0.34955343604088;3.4141314029694;8.8860788345337
1477745216082;-5.1720121518883E-6;-5.1720121518883E-6;-0.0010613831691444;-0.34237083792686;3.3991677761078;8.923189163208
1477745216132;0.0010607364820316;-0.0010710800997913;4.5253841562953E-6;-0.33937808871269;3.4302923679352;8.8992471694946
1477745216184;-0.0010710800997913;0.0010607364820316;0.0010704338783398;-0.34656068682671;3.4195184707642;8.9052324295044
1477745216236;-5.1720121518883E-6;-0.002136989030987;4.5253841562953E-6;-0.33279401063919;3.3925836086273;8.9106197357178
1477745216287;-5.1720121518883E-6;-0.0010710800997913;4.5253841562953E-6;-0.33937808871269;3.4075474739075;8.9237880706787
1477745216339;-5.1720121518883E-6;-5.1720121518883E-6;4.5253841562953E-6;-0.32980126142502;3.4015619754791;8.9303722381592
1477745216389;-0.0010710800997913;-5.1720121518883E-6;4.5253841562953E-6;-0.34177228808403;3.400963306427;8.9052324295044
1477745216440;-5.1720121518883E-6;-5.1720121518883E-6;-0.0010613831691444;-0.35733458399773;3.4141314029694;8.9213933944702
1477745216492;-0.0010710800997913;-5.1720121518883E-6;4.5253841562953E-6;-0.36571428179741;3.4165256023407;8.9094228744507
1477745216544;-5.1720121518883E-6;0.0010607364820316;4.5253841562953E-6;-0.36631283164024;3.4129343032837;8.9034376144409
1477745216594;-0.002136989030987;-0.002136989030987;-0.0010613831691444;-0.36451718211174;3.411737203598;8.8986492156982
1477745216644;-0.0010710800997913;-5.1720121518883E-6;0.0010704338783398;-0.36451718211174;3.4099416732788;8.9052324295044
1477745216695;-5.1720121518883E-6;0.0010607364820316;0.0010704338783398;-0.37648820877075;3.4039561748505;8.9004440307617
1477745216747;-5.1720121518883E-6;-0.002136989030987;-0.0021272911690176;-0.34715923666954;3.4129343032837;8.9477300643921
1477745216798;-0.0010710800997913;0.0010607364820316;0.0010704338783398;-0.35015198588371;3.4003648757935;8.9333648681641
1477745216847;-0.0010710800997913;-0.0010710800997913;4.5253841562953E-6;-0.3585316836834;3.4237082004547;8.9219923019409
1477745216900;-0.0010710800997913;-0.0010710800997913;0.0010704338783398;-0.35494038462639;3.4015619754791;8.9285764694214
1477745216950;-5.1720121518883E-6;0.0010607364820316;-0.0010613831691444;-0.33578675985336;3.3991677761078;8.9255838394165
1477745217001;0.0010607364820316;0.0010607364820316;4.5253841562953E-6;-0.3603273332119;3.3877952098846;8.9363574981689
1477745217055;-5.1720121518883E-6;-0.0010710800997913;4.5253841562953E-6;-0.36272153258324;3.3925836086273;8.9148092269897
1477745217105;-5.1720121518883E-6;-5.1720121518883E-6;0.0010704338783398;-0.35015198588371;3.4129343032837;8.9100208282471
1477745217162;-0.0010710800997913;-5.1720121518883E-6;4.5253841562953E-6;-0.35673603415489;3.4183213710785;8.9249849319458
1477745217216;-0.0010710800997913;-5.1720121518883E-6;0.0010704338783398;-0.36511573195457;3.404554605484;8.9207954406738
1477745217265;-5.1720121518883E-6;-0.0010710800997913;4.5253841562953E-6;-0.35613748431206;3.415328502655;8.9148092269897
1477745217316;-0.0010710800997913;-0.0010710800997913;4.5253841562953E-6;-0.36750993132591;3.4111387729645;8.8938608169556
1477745217367;-0.0010710800997913;-0.0010710800997913;4.5253841562953E-6;-0.33458966016769;3.4171242713928;8.9028387069702
1477745217417;0.0010607364820316;-5.1720121518883E-6;4.5253841562953E-6;-0.36750993132591;3.4159271717072;8.9112186431885
1477745217467;-0.0010710800997913;0.0010607364820316;4.5253841562953E-6;-0.3411737382412;3.422511100769;8.9112186431885
1477745217517;0.0021266450639814;0.0010607364820316;-0.0010613831691444;-0.35613748431206;3.4183213710785;8.9160070419312
1477745217568;-5.1720121518883E-6;-5.1720121518883E-6;0.0010704338783398;-0.3585316836834;3.4183213710785;8.9010429382324
1477745217620;0.0010607364820316;-5.1720121518883E-6;4.5253841562953E-6;-0.35314473509789;3.404554605484;8.9184007644653
1477745217671;-0.0010710800997913;0.0010607364820316;4.5253841562953E-6;-0.36391863226891;3.418919801712;8.9399490356445
1477745217722;-0.002136989030987;0.0010607364820316;4.5253841562953E-6;-0.35913023352623;3.4183213710785;8.9261817932129
1477745217777;0.0010607364820316;-5.1720121518883E-6;0.0010704338783398;-0.35673603415489;3.4129343032837;8.9184007644653
1477745217828;0.0010607364820316;-5.1720121518883E-6;0.0010704338783398;-0.35015198588371;3.3985691070557;8.9279775619507
1477745217879;-5.1720121518883E-6;-5.1720121518883E-6;-0.0010613831691444;-0.3687070608139;3.4099416732788;8.9369564056396
1477745217929;-5.1720121518883E-6;-5.1720121518883E-6;4.5253841562953E-6;-0.35254618525505;3.4237082004547;8.9213933944702
1477745217979;-0.0010710800997913;0.0010607364820316;4.5253841562953E-6;-0.35793313384056;3.4237082004547;8.9291744232178
1477745218030;0.0010607364820316;0.0010607364820316;0.0010704338783398;-0.35134908556938;3.4219126701355;8.9279775619507
1477745218080;-5.1720121518883E-6;-5.1720121518883E-6;4.5253841562953E-6;-0.35434183478355;3.415328502655;8.9285764694214
1477745218135;-5.1720121518883E-6;-0.0010710800997913;0.0010704338783398;-0.35194763541222;3.4129343032837;8.9124155044556
1477745218184;-0.0010710800997913;-5.1720121518883E-6;-0.0010613831691444;-0.37409400939941;3.4219126701355;8.9094228744507
1477745218237;-0.002136989030987;-5.1720121518883E-6;0.0010704338783398;-0.34237083792686;3.4195184707642;8.9148092269897
1477745218289;-5.1720121518883E-6;-5.1720121518883E-6;4.5253841562953E-6;-0.3429693877697;3.415328502655;8.9172039031982
1477745218340;-5.1720121518883E-6;-5.1720121518883E-6;4.5253841562953E-6;-0.35972878336906;3.4165256023407;8.9166049957275
1477745218390;0.0010607364820316;0.0010607364820316;4.5253841562953E-6;-0.35673603415489;3.4314894676208;8.9435396194458
1477745218440;-5.1720121518883E-6;-5.1720121518883E-6;4.5253841562953E-6;-0.36750993132591;3.4267010688782;8.9082260131836
1477745218491;-5.1720121518883E-6;0.0021266450639814;4.5253841562953E-6;-0.33399111032486;3.4272994995117;8.9118165969849
1477745218541;-0.002136989030987;-0.0010710800997913;4.5253841562953E-6;-0.37529110908508;3.404554605484;8.9243860244751
1477745218594;-5.1720121518883E-6;-5.1720121518883E-6;0.0010704338783398;-0.35494038462639;3.4147300720215;8.9255838394165
1477745218647;-5.1720121518883E-6;0.0010607364820316;4.5253841562953E-6;-0.35314473509789;3.404554605484;8.9142112731934
1477745218698;-0.0010710800997913;0.0010607364820316;-0.0010613831691444;-0.35314473509789;3.4177227020264;8.904634475708
1477745218749;-5.1720121518883E-6;0.0021266450639814;4.5253841562953E-6;-0.35972878336906;3.4147300720215;8.9154081344604
1477745218800;-5.1720121518883E-6;-5.1720121518883E-6;0.0010704338783398;-0.36332008242607;3.408145904541;8.9237880706787
1477745218850;-5.1720121518883E-6;-0.0010710800997913;4.5253841562953E-6;-0.33698388934135;3.4075474739075;8.9267807006836
1477745218901;-0.0010710800997913;-5.1720121518883E-6;-0.0010613831691444;-0.36092588305473;3.4033575057983;8.9124155044556
1477745218956;-5.1720121518883E-6;-5.1720121518883E-6;4.5253841562953E-6;-0.36691138148308;3.4057517051697;8.9399490356445
1477745219009;-0.0010710800997913;0.0010607364820316;4.5253841562953E-6;-0.35134908556938;3.4141314029694;8.9178028106689
1477745219060;0.0010607364820316;-5.1720121518883E-6;4.5253841562953E-6;-0.35015198588371;3.4344820976257;8.9327659606934
1477745219112;-5.1720121518883E-6;0.0010607364820316;4.5253841562953E-6;-0.35374328494072;3.4171242713928;8.923189163208
1477745219162;-5.1720121518883E-6;-0.0010710800997913;0.0021363419946283;-0.36511573195457;3.4278981685638;8.90882396698
1477745219213;-0.0010710800997913;-0.0010710800997913;0.0010704338783398;-0.35254618525505;3.4195184707642;8.9178028106689
1477745219274;-0.0010710800997913;0.0010607364820316;-0.0010613831691444;-0.33877953886986;3.4069488048553;8.9201965332031
1477745219332;-5.1720121518883E-6;-5.1720121518883E-6;-0.0010613831691444;-0.3429693877697;3.4129343032837;8.9417448043823
1477745219392;0.0031925530638546;-5.1720121518883E-6;4.5253841562953E-6;-0.36930561065674;3.415328502655;8.9417448043823
1477745219448;-5.1720121518883E-6;-5.1720121518883E-6;-0.0010613831691444;-0.3429693877697;3.4063503742218;8.9148092269897
1477745219511;0.0010607364820316;-5.1720121518883E-6;0.0010704338783398;-0.37229835987091;3.39737200737;8.9219923019409
1477745219570;-5.1720121518883E-6;-5.1720121518883E-6;4.5253841562953E-6;-0.34356793761253;3.4284965991974;8.9178028106689
1477745219634;-5.1720121518883E-6;-5.1720121518883E-6;4.5253841562953E-6;-0.34536358714104;3.4075474739075;8.946533203125
1477745219694;-5.1720121518883E-6;-5.1720121518883E-6;4.5253841562953E-6;-0.34835633635521;3.4087445735931;8.9213933944702
1477745219756;-0.0010710800997913;0.0010607364820316;0.0010704338783398;-0.34835633635521;3.422511100769;8.9118165969849
1477745219817;-5.1720121518883E-6;-5.1720121518883E-6;0.0010704338783398;-0.36332008242607;3.393780708313;8.9279775619507
1477745219877;-5.1720121518883E-6;-5.1720121518883E-6;4.5253841562953E-6;-0.35793313384056;3.4308907985687;8.9267807006836
1477745219939;-0.0010710800997913;0.0010607364820316;0.0010704338783398;-0.37169981002808;3.3967735767365;8.9219923019409
1477745220009;-0.0010710800997913;-5.1720121518883E-6;4.5253841562953E-6;-0.36511573195457;3.4278981685638;8.8962545394897
1477745220062;-5.1720121518883E-6;-5.1720121518883E-6;0.0010704338783398;-0.35374328494072;3.4231097698212;8.9124155044556
1477745220118;-0.0010710800997913;-5.1720121518883E-6;4.5253841562953E-6;-0.35015198588371;3.411737203598;8.9148092269897
1477745220170;0.0010607364820316;-5.1720121518883E-6;4.5253841562953E-6;-0.34775778651237;3.4231097698212;8.9112186431885
1477745220223;-0.0010710800997913;0.0021266450639814;-0.0010613831691444;-0.33339256048203;3.4171242713928;8.9327659606934
1477745220276;-5.1720121518883E-6;-0.0010710800997913;-0.0010613831691444;-0.34536358714104;3.4057517051697;8.9369564056396
1477745220329;-0.0010710800997913;0.0010607364820316;4.5253841562953E-6;-0.35194763541222;3.422511100769;8.9213933944702
1477745220379;-0.0010710800997913;0.0010607364820316;4.5253841562953E-6;-0.35793313384056;3.4296936988831;8.9273796081543
1477745220432;-0.0010710800997913;-5.1720121518883E-6;0.0021363419946283;-0.35553893446922;3.4063503742218;8.9207954406738
1477745220485;-0.0010710800997913;0.0010607364820316;0.0010704338783398;-0.35194763541222;3.4105401039124;8.8998460769653
1477745220536;-5.1720121518883E-6;-0.0010710800997913;4.5253841562953E-6;-0.35015198588371;3.4177227020264;8.9160070419312
1477745220585;-0.0010710800997913;-0.0010710800997913;4.5253841562953E-6;-0.35733458399773;3.4105401039124;8.9070281982422
1477745220638;-5.1720121518883E-6;-5.1720121518883E-6;0.0010704338783398;-0.33458966016769;3.4165256023407;8.9345617294312
1477745220689;-5.1720121518883E-6;-0.0010710800997913;4.5253841562953E-6;-0.34895488619804;3.4183213710785;8.9333648681641
1477745220742;-5.1720121518883E-6;-5.1720121518883E-6;4.5253841562953E-6;-0.35374328494072;3.4099416732788;8.9195976257324
1477745220792;-5.1720121518883E-6;0.0010607364820316;4.5253841562953E-6;-0.36810851097107;3.3764228820801;8.8872766494751
1477745220844;0.0010607364820316;0.0010607364820316;0.0010704338783398;-0.34057518839836;3.3979706764221;8.9249849319458
1477745220895;-0.0010710800997913;0.0010607364820316;0.0010704338783398;-0.33818098902702;3.4356791973114;8.9363574981689
1477745220947;-0.0010710800997913;-5.1720121518883E-6;0.0010704338783398;-0.36092588305473;3.4111387729645;8.8878746032715
1477745220997;-0.0010710800997913;0.0010607364820316;-0.0010613831691444;-0.37828385829926;3.4231097698212;8.9525184631348
1477745221048;-5.1720121518883E-6;0.0010607364820316;4.5253841562953E-6;-0.36691138148308;3.4039561748505;8.9309701919556
1477745221102;-5.1720121518883E-6;-5.1720121518883E-6;-0.0010613831691444;-0.35374328494072;3.4326865673065;8.9381532669067
1477745221156;-5.1720121518883E-6;0.0010607364820316;-0.0010613831691444;-0.34356793761253;3.4171242713928;8.918999671936
1477745221209;-5.1720121518883E-6;0.0010607364820316;0.0010704338783398;-0.34775778651237;3.4099416732788;8.9291744232178
1477745221260;0.0010607364820316;-5.1720121518883E-6;0.0010704338783398;-0.36750993132591;3.4075474739075;8.9261817932129
1477745221311;0.0010607364820316;0.0010607364820316;4.5253841562953E-6;-0.36272153258324;3.4392704963684;8.9124155044556
1477745221363;-0.002136989030987;-5.1720121518883E-6;4.5253841562953E-6;-0.3585316836834;3.408145904541;8.9327659606934
1477745221413;-5.1720121518883E-6;-0.0010710800997913;4.5253841562953E-6;-0.37349545955658;3.4063503742218;8.8950576782227
1477745221465;-0.0010710800997913;0.0010607364820316;0.0010704338783398;-0.35733458399773;3.4141314029694;8.9118165969849
1477745221516;-5.1720121518883E-6;0.0010607364820316;4.5253841562953E-6;-0.34835633635521;3.4099416732788;8.9249849319458
1477745221565;0.0010607364820316;-5.1720121518883E-6;-0.0010613831691444;-0.36631283164024;3.4207155704498;8.9154081344604
1477745221618;-5.1720121518883E-6;-5.1720121518883E-6;-0.0010613831691444;-0.35673603415489;3.4051532745361;8.9225912094116
1477745221670;-5.1720121518883E-6;-5.1720121518883E-6;4.5253841562953E-6;-0.34895488619804;3.4278981685638;8.9148092269897
1477745221726;-5.1720121518883E-6;-0.0010710800997913;4.5253841562953E-6;-0.35254618525505;3.4105401039124;8.9213933944702
1477745221777;0.0010607364820316;0.0010607364820316;0.0010704338783398;-0.34895488619804;3.4195184707642;8.923189163208
1477745221828;-0.0010710800997913;0.0010607364820316;4.5253841562953E-6;-0.3411737382412;3.4165256023407;8.9297733306885
1477745221882;0.0010607364820316;0.0010607364820316;4.5253841562953E-6;-0.3447650372982;3.4039561748505;8.9130144119263
1477745221934;-5.1720121518883E-6;0.0010607364820316;4.5253841562953E-6;-0.35194763541222;3.408145904541;8.9130144119263
1477745221986;-0.0010710800997913;0.0010607364820316;4.5253841562953E-6;-0.34775778651237;3.415328502655;8.9219923019409
1477745222038;-0.0010710800997913;-5.1720121518883E-6;4.5253841562953E-6;-0.36631283164024;3.415328502655;8.9184007644653
1477745222090;-0.0010710800997913;0.0010607364820316;-0.0010613831691444;-0.36152443289757;3.4105401039124;8.9082260131836
1477745222143;-0.0010710800997913;-5.1720121518883E-6;0.0010704338783398;-0.34955343604088;3.4177227020264;8.9094228744507
1477745222197;-5.1720121518883E-6;0.0010607364820316;0.0010704338783398;-0.36092588305473;3.4434604644775;8.9207954406738
1477745222250;-5.1720121518883E-6;-5.1720121518883E-6;0.0010704338783398;-0.36272153258324;3.4237082004547;8.937554359436
1477745222305;0.0010607364820316;-0.0010710800997913;4.5253841562953E-6;-0.34775778651237;3.4243068695068;8.8998460769653
1477745222357;-0.0010710800997913;0.0010607364820316;-0.0010613831691444;-0.35793313384056;3.418919801712;8.9052324295044
1477745222410;-0.002136989030987;-5.1720121518883E-6;-0.0010613831691444;-0.3447650372982;3.4267010688782;8.9213933944702
1477745222463;0.0010607364820316;-5.1720121518883E-6;4.5253841562953E-6;-0.33758243918419;3.4201169013977;8.9028387069702
1477745222516;0.0010607364820316;0.0010607364820316;4.5253841562953E-6;-0.38127660751343;3.4320878982544;8.9417448043823
1477745222566;-0.0010710800997913;-0.0010710800997913;4.5253841562953E-6;-0.33219546079636;3.4165256023407;8.9070281982422
1477745222619;-0.0010710800997913;-5.1720121518883E-6;4.5253841562953E-6;-0.35134908556938;3.4219126701355;8.8884735107422
1477745222673;-0.0010710800997913;-5.1720121518883E-6;0.0010704338783398;-0.32740706205368;3.4129343032837;8.9291744232178
1477745222726;0.0010607364820316;0.0010607364820316;-0.0010613831691444;-0.34895488619804;3.4314894676208;8.9225912094116
1477745222777;-5.1720121518883E-6;-5.1720121518883E-6;4.5253841562953E-6;-0.34895488619804;3.404554605484;8.9237880706787
1477745222831;-0.0010710800997913;0.0010607364820316;-0.0010613831691444;-0.35553893446922;3.3997662067413;8.9118165969849
1477745222883;-0.0010710800997913;-5.1720121518883E-6;4.5253841562953E-6;-0.37110126018524;3.4027590751648;8.9040355682373
1477745222940;-0.0010710800997913;0.0010607364820316;4.5253841562953E-6;-0.36810851097107;3.4141314029694;8.9130144119263
1477745222991;-5.1720121518883E-6;0.0010607364820316;4.5253841562953E-6;-0.34057518839836;3.4129343032837;8.8998460769653
1477745223046;0.0010607364820316;-5.1720121518883E-6;4.5253841562953E-6;-0.3603273332119;3.4338836669922;8.9243860244751
1477745223098;0.0021266450639814;-5.1720121518883E-6;-0.0010613831691444;-0.3585316836834;3.4123358726501;8.9201965332031
1477745223153;-0.0010710800997913;-0.0010710800997913;4.5253841562953E-6;-0.33877953886986;3.4123358726501;8.9411458969116
1477745223205;-0.0010710800997913;-5.1720121518883E-6;4.5253841562953E-6;-0.3687070608139;3.4015619754791;8.9124155044556
1477745223259;-0.0010710800997913;-5.1720121518883E-6;4.5253841562953E-6;-0.35553893446922;3.4093430042267;8.9261817932129
1477745223311;0.0010607364820316;-5.1720121518883E-6;0.0010704338783398;-0.34416648745537;3.426102399826;8.9040355682373
1477745223362;-0.0010710800997913;0.0010607364820316;0.0010704338783398;-0.37050271034241;3.404554605484;8.9154081344604
1477745223423;-5.1720121518883E-6;-5.1720121518883E-6;-0.0010613831691444;-0.35553893446922;3.4051532745361;8.9166049957275
1477745223476;-5.1720121518883E-6;-5.1720121518883E-6;4.5253841562953E-6;-0.35374328494072;3.4075474739075;8.9291744232178
1477745223528;0.0010607364820316;0.0010607364820316;4.5253841562953E-6;-0.35254618525505;3.4332849979401;8.9315690994263
1477745223580;-0.0010710800997913;0.0010607364820316;-0.0010613831691444;-0.36631283164024;3.4165256023407;8.9333648681641
1477745223631;-0.0010710800997913;-5.1720121518883E-6;-0.0010613831691444;-0.35673603415489;3.4129343032837;8.9261817932129
1477745223691;-0.0010710800997913;0.0010607364820316;4.5253841562953E-6;-0.36391863226891;3.4141314029694;8.9243860244751
1477745223741;0.0010607364820316;-0.0010710800997913;4.5253841562953E-6;-0.35314473509789;3.418919801712;8.9279775619507
1477745223795;-5.1720121518883E-6;-0.0010710800997913;4.5253841562953E-6;-0.3585316836834;3.4093430042267;8.9453353881836
1477745223848;-0.0010710800997913;-5.1720121518883E-6;0.0010704338783398;-0.3411737382412;3.4051532745361;8.9285764694214
1477745223901;-0.0010710800997913;0.0010607364820316;4.5253841562953E-6;-0.35553893446922;3.4057517051697;8.9178028106689
1477745223953;-0.0010710800997913;-0.0010710800997913;4.5253841562953E-6;-0.33458966016769;3.3991677761078;8.9261817932129
1477745224006;-5.1720121518883E-6;0.0010607364820316;0.0010704338783398;-0.34416648745537;3.4159271717072;8.9333648681641
1477745224060;-0.0010710800997913;-5.1720121518883E-6;4.5253841562953E-6;-0.35613748431206;3.3979706764221;8.9094228744507
1477745224113;0.0010607364820316;-0.0010710800997913;4.5253841562953E-6;-0.35673603415489;3.3985691070557;8.9130144119263
1477745224167;0.0010607364820316;-0.0010710800997913;-0.0010613831691444;-0.35374328494072;3.3997662067413;8.9195976257324
1477745224219;0.0010607364820316;-0.0010710800997913;4.5253841562953E-6;-0.35613748431206;3.4171242713928;8.9243860244751
1477745224272;-5.1720121518883E-6;0.0021266450639814;4.5253841562953E-6;-0.3585316836834;3.4075474739075;8.9142112731934
1477745224323;-5.1720121518883E-6;-5.1720121518883E-6;4.5253841562953E-6;-0.35494038462639;3.4183213710785;8.9124155044556
1477745224377;0.0010607364820316;-5.1720121518883E-6;4.5253841562953E-6;-0.35194763541222;3.4033575057983;8.9279775619507
1477745224436;0.0021266450639814;-5.1720121518883E-6;0.0010704338783398;-0.35254618525505;3.4219126701355;8.9142112731934
1477745224488;-5.1720121518883E-6;-0.0010710800997913;-0.0010613831691444;-0.32920271158218;3.4207155704498;8.9279775619507
1477745224541;0.0010607364820316;-5.1720121518883E-6;4.5253841562953E-6;-0.35374328494072;3.4003648757935;8.9142112731934
1477745224593;-5.1720121518883E-6;0.0010607364820316;4.5253841562953E-6;-0.37409400939941;3.4171242713928;8.9207954406738
1477745224645;-5.1720121518883E-6;0.0010607364820316;4.5253841562953E-6;-0.34775778651237;3.3967735767365;8.9040355682373
1477745224700;-5.1720121518883E-6;0.0010607364820316;0.0010704338783398;-0.35134908556938;3.4135329723358;8.9154081344604
1477745224753;-0.0010710800997913;-5.1720121518883E-6;4.5253841562953E-6;-0.35134908556938;3.4087445735931;8.9273796081543
1477745224808;0.0010607364820316;0.0010607364820316;4.5253841562953E-6;-0.37708675861359;3.418919801712;8.9417448043823
1477745224862;-5.1720121518883E-6;0.0010607364820316;0.0010704338783398;-0.3585316836834;3.4171242713928;8.9225912094116
1477745224918;-0.0010710800997913;-5.1720121518883E-6;0.0010704338783398;-0.34237083792686;3.415328502655;8.9453353881836
1477745224970;-5.1720121518883E-6;-5.1720121518883E-6;0.0010704338783398;-0.35913023352623;3.411737203598;8.9207954406738
1477745224987;0.0010607364820316;-5.1720121518883E-6;0.0010704338783398;-0.34835633635521;3.4123358726501;8.9184007644653
1477745225030;-5.1720121518883E-6;0.0010607364820316;-0.0010613831691444;-0.35733458399773;3.4063503742218;8.9297733306885
1477745225081;-5.1720121518883E-6;-5.1720121518883E-6;4.5253841562953E-6;-0.34835633635521;3.4147300720215;8.9447374343872
1477745225134;-5.1720121518883E-6;-5.1720121518883E-6;4.5253841562953E-6;-0.36930561065674;3.422511100769;8.9052324295044
1477745225186;-0.0010710800997913;0.0010607364820316;4.5253841562953E-6;-0.3585316836834;3.4111387729645;8.923189163208
1477745225238;-5.1720121518883E-6;-0.002136989030987;4.5253841562953E-6;-0.33937808871269;3.3997662067413;8.9261817932129
1477745225291;-0.0010710800997913;-0.0010710800997913;-0.0010613831691444;-0.35314473509789;3.39737200737;8.9154081344604
1477745225343;-0.0010710800997913;-5.1720121518883E-6;4.5253841562953E-6;-0.36631283164024;3.3997662067413;8.8920650482178
1477745225395;-5.1720121518883E-6;-0.0010710800997913;0.0010704338783398;-0.34835633635521;3.4141314029694;8.9154081344604
1477745225449;0.0021266450639814;0.0010607364820316;0.0021363419946283;-0.34356793761253;3.4129343032837;8.9064302444458
1477745225501;-5.1720121518883E-6;-5.1720121518883E-6;-0.0010613831691444;-0.35793313384056;3.4135329723358;8.90882396698
1477745225559;-0.0010710800997913;0.0010607364820316;0.0010704338783398;-0.34715923666954;3.4267010688782;8.9255838394165
1477745225612;0.0010607364820316;-5.1720121518883E-6;4.5253841562953E-6;-0.34775778651237;3.4159271717072;8.9261817932129
1477745225669;-0.0010710800997913;0.0010607364820316;0.0021363419946283;-0.35793313384056;3.4207155704498;8.932168006897
1477745225721;-5.1720121518883E-6;-5.1720121518883E-6;4.5253841562953E-6;-0.37289690971375;3.408145904541;8.9339628219604
1477745225775;-0.0010710800997913;-5.1720121518883E-6;4.5253841562953E-6;-0.35314473509789;3.422511100769;8.9357585906982
1477745225829;-5.1720121518883E-6;-5.1720121518883E-6;0.0010704338783398;-0.34775778651237;3.408145904541;8.9184007644653
1477745225846;-0.0010710800997913;-5.1720121518883E-6;0.0010704338783398;-0.35913023352623;3.4087445735931;8.9273796081543
1477745225863;-5.1720121518883E-6;-5.1720121518883E-6;4.5253841562953E-6;-0.35733458399773;3.4099416732788;8.9094228744507
1477745225921;-0.0010710800997913;0.0010607364820316;4.5253841562953E-6;-0.36152443289757;3.4099416732788;8.9255838394165
1477745225979;-0.0010710800997913;-5.1720121518883E-6;4.5253841562953E-6;-0.35075053572655;3.4207155704498;8.9100208282471
1477745226037;-5.1720121518883E-6;-5.1720121518883E-6;0.0010704338783398;-0.35314473509789;3.4141314029694;8.9100208282471
1477745226092;-0.0010710800997913;-0.0010710800997913;4.5253841562953E-6;-0.36152443289757;3.4099416732788;8.9154081344604
1477745226148;-5.1720121518883E-6;0.0010607364820316;4.5253841562953E-6;-0.35194763541222;3.4087445735931;8.9148092269897
1477745226201;-0.0010710800997913;-5.1720121518883E-6;0.0010704338783398;-0.35434183478355;3.3854010105133;8.9315690994263
1477745226257;-5.1720121518883E-6;-0.002136989030987;0.0010704338783398;-0.3585316836834;3.4231097698212;8.9124155044556
1477745226314;-0.0010710800997913;-5.1720121518883E-6;-0.0010613831691444;-0.36691138148308;3.4003648757935;8.9225912094116
1477745226368;-0.0010710800997913;-5.1720121518883E-6;4.5253841562953E-6;-0.36332008242607;3.4249053001404;8.9166049957275
1477745226386;-5.1720121518883E-6;0.0010607364820316;4.5253841562953E-6;-0.3447650372982;3.4111387729645;8.9279775619507
1477745226427;0.0010607364820316;-5.1720121518883E-6;4.5253841562953E-6;-0.33758243918419;3.4111387729645;8.9297733306885
1477745226481;-0.002136989030987;-0.0010710800997913;-0.0010613831691444;-0.37050271034241;3.4063503742218;8.9112186431885
1477745226535;-0.0010710800997913;-5.1720121518883E-6;0.0010704338783398;-0.35793313384056;3.415328502655;8.9249849319458
1477745226591;-5.1720121518883E-6;-0.0010710800997913;-0.0010613831691444;-0.35913023352623;3.4177227020264;8.9303722381592
1477745226646;-5.1720121518883E-6;-0.0010710800997913;0.0010704338783398;-0.37529110908508;3.4243068695068;8.9142112731934
1477745226700;0.0010607364820316;0.0010607364820316;4.5253841562953E-6;-0.36511573195457;3.4147300720215;8.918999671936
1477745226758;-5.1720121518883E-6;0.0021266450639814;4.5253841562953E-6;-0.34715923666954;3.4650082588196;8.9914245605469
1477745226812;-5.1720121518883E-6;-0.0010710800997913;4.5253841562953E-6;-0.37708675861359;3.390189409256;8.877100944519
1477745226866;0.0010607364820316;-5.1720121518883E-6;0.0010704338783398;-0.3585316836834;3.4458546638489;8.9309701919556
1477745226922;0.0010607364820316;-0.0010710800997913;-0.0010613831691444;-0.36391863226891;3.4201169013977;8.9154081344604
1477745226977;-0.0010710800997913;-5.1720121518883E-6;4.5253841562953E-6;-0.34057518839836;3.404554605484;8.9333648681641
1477745227033;-5.1720121518883E-6;-5.1720121518883E-6;4.5253841562953E-6;-0.34955343604088;3.4105401039124;8.9178028106689
1477745227050;-0.0010710800997913;-5.1720121518883E-6;0.0010704338783398;-0.35793313384056;3.4147300720215;8.9363574981689
1477745227093;-5.1720121518883E-6;0.0010607364820316;4.5253841562953E-6;-0.35194763541222;3.4129343032837;8.9303722381592
1477745227110;-0.0010710800997913;0.0021266450639814;4.5253841562953E-6;-0.34715923666954;3.4021604061127;8.9154081344604
1477745227151;-5.1720121518883E-6;-5.1720121518883E-6;-0.0010613831691444;-0.34775778651237;3.4015619754791;8.937554359436
1477745227208;-5.1720121518883E-6;-5.1720121518883E-6;4.5253841562953E-6;-0.36571428179741;3.4087445735931;8.9399490356445
1477745227264;-5.1720121518883E-6;-5.1720121518883E-6;4.5253841562953E-6;-0.34057518839836;3.4219126701355;8.8998460769653
1477745227322;0.0010607364820316;-5.1720121518883E-6;4.5253841562953E-6;-0.3429693877697;3.4093430042267;8.9124155044556
1477745227339;-0.002136989030987;0.0010607364820316;4.5253841562953E-6;-0.35134908556938;3.4105401039124;8.9058313369751
1477745227382;-5.1720121518883E-6;0.0010607364820316;4.5253841562953E-6;-0.35494038462639;3.4123358726501;8.9070281982422
1477745227399;-0.0010710800997913;-5.1720121518883E-6;0.0010704338783398;-0.35434183478355;3.4135329723358;8.9184007644653
1477745227439;0.0010607364820316;-5.1720121518883E-6;4.5253841562953E-6;-0.36391863226891;3.4296936988831;8.90882396698
1477745227493;0.0010607364820316;-5.1720121518883E-6;4.5253841562953E-6;-0.34596213698387;3.4213140010834;8.9237880706787
1477745227511;-5.1720121518883E-6;0.0010607364820316;4.5253841562953E-6;-0.34895488619804;3.400963306427;8.9279775619507
1477745227553;-0.0010710800997913;0.0010607364820316;4.5253841562953E-6;-0.37469255924225;3.4099416732788;8.9249849319458
1477745227611;-5.1720121518883E-6;-5.1720121518883E-6;4.5253841562953E-6;-0.36391863226891;3.426102399826;8.9279775619507
1477745227666;-0.002136989030987;0.0010607364820316;0.0010704338783398;-0.3585316836834;3.411737203598;8.9100208282471
1477745227721;-0.0010710800997913;0.0010607364820316;0.0010704338783398;-0.35374328494072;3.4105401039124;8.9285764694214
1477745227776;-0.0010710800997913;0.0010607364820316;4.5253841562953E-6;-0.3621229827404;3.4243068695068;8.9213933944702
1477745227830;-0.0010710800997913;-0.0010710800997913;0.0010704338783398;-0.35254618525505;3.4183213710785;8.9112186431885
1477745227884;0.0010607364820316;0.0021266450639814;4.5253841562953E-6;-0.36571428179741;3.4141314029694;8.9136123657227
1477745227940;0.0010607364820316;-0.0010710800997913;-0.0010613831691444;-0.35075053572655;3.4039561748505;8.9399490356445
1477745227958;-5.1720121518883E-6;-5.1720121518883E-6;4.5253841562953E-6;-0.3687070608139;3.39737200737;8.9070281982422
1477745228001;-0.0010710800997913;0.0010607364820316;-0.0010613831691444;-0.36152443289757;3.4428617954254;8.9136123657227
1477745228056;-5.1720121518883E-6;0.0010607364820316;4.5253841562953E-6;-0.35374328494072;3.422511100769;8.9303722381592
1477745228114;-5.1720121518883E-6;0.0010607364820316;4.5253841562953E-6;-0.35553893446922;3.4284965991974;8.9124155044556
1477745228169;0.0010607364820316;-5.1720121518883E-6;0.0010704338783398;-0.36511573195457;3.4284965991974;8.9279775619507
1477745228225;-5.1720121518883E-6;-5.1720121518883E-6;-0.0010613831691444;-0.34356793761253;3.4296936988831;8.9447374343872
1477745228242;-0.002136989030987;-5.1720121518883E-6;-0.0010613831691444;-0.35075053572655;3.4392704963684;8.9333648681641
1477745228285;-0.0010710800997913;-5.1720121518883E-6;4.5253841562953E-6;-0.37948095798492;3.393780708313;8.9279775619507
1477745228340;-5.1720121518883E-6;-5.1720121518883E-6;-0.0021272911690176;-0.34656068682671;3.4099416732788;8.918999671936
1477745228398;-0.002136989030987;0.0010607364820316;4.5253841562953E-6;-0.33997663855553;3.4249053001404;8.9082260131836
1477745228452;-0.0010710800997913;0.0010607364820316;4.5253841562953E-6;-0.35134908556938;3.4063503742218;8.923189163208
1477745228508;0.0010607364820316;0.0010607364820316;0.0010704338783398;-0.3603273332119;3.4075474739075;8.9184007644653
1477745228568;-5.1720121518883E-6;0.0021266450639814;4.5253841562953E-6;-0.36272153258324;3.4255039691925;8.8884735107422
1477745228623;-0.002136989030987;0.0010607364820316;0.0021363419946283;-0.36631283164024;3.415328502655;8.9237880706787
1477745228640;-0.002136989030987;0.0010607364820316;4.5253841562953E-6;-0.35613748431206;3.4207155704498;8.9261817932129
1477745228682;-5.1720121518883E-6;-5.1720121518883E-6;4.5253841562953E-6;-0.35314473509789;3.4159271717072;8.932168006897
1477745228741;-0.0010710800997913;-5.1720121518883E-6;-0.0010613831691444;-0.36152443289757;3.4356791973114;8.932168006897
1477745228794;-5.1720121518883E-6;0.0010607364820316;-0.0010613831691444;-0.36930561065674;3.4129343032837;8.9148092269897
1477745228850;-0.0010710800997913;-5.1720121518883E-6;4.5253841562953E-6;-0.3429693877697;3.4129343032837;8.9130144119263
1477745228907;-5.1720121518883E-6;-5.1720121518883E-6;0.0010704338783398;-0.36930561065674;3.422511100769;8.9297733306885
1477745228964;-5.1720121518883E-6;-5.1720121518883E-6;0.0010704338783398;-0.36152443289757;3.4105401039124;8.9273796081543
